trial_nr	onset	event_type	phase	response	nr_frames	condition	hazard	state	freq	volume	onset_abs	duration
0	0.11796810000669211	stim	0		264	surprise	0.05	1.0	2000.0	1.0	20.11881130002439	2.6388358999975026
0	2.7482870000239927	response	0	space		surprise	0.05	1.0	2000.0	1.0	22.74913020004169	
0	2.7568040000041947	stim	1		101	surprise	0.05	1.0	2000.0	1.0	22.757647200021893	1.0108197000226937
0	3.7676237000268884	stim	2		50	surprise	0.05	1.0	2000.0	1.0	23.768466900044587	0.5000405999890063
1	4.267664300015895	stim	0		0	surprise	0.05	1.0	2000.0	1.0	24.268507500033593	0.002236500004073605
1	4.269900800019968	stim	1		100	surprise	0.05	1.0	2000.0	1.0	24.270744000037666	0.9979515000013635
1	5.267852300021332	stim	2		50	surprise	0.05	1.0	2000.0	1.0	25.26869550003903	0.500089899986051
2	5.767942200007383	stim	0		0	surprise	0.05	1.0	1000.0	0.9804947171720192	25.76878540002508	0.0022403000039048493
2	5.770182500011288	stim	1		100	surprise	0.05	1.0	1000.0	0.9804947171720192	25.771025700028986	0.9982972000143491
2	6.768479700025637	stim	2		50	surprise	0.05	1.0	1000.0	0.9804947171720192	26.769322900043335	0.49979829997755587
3	7.268278000003193	stim	0		0	surprise	0.05	1.0	2000.0	1.0	27.26912120002089	0.002070600021397695
3	7.27034860002459	stim	1		99	surprise	0.05	1.0	2000.0	1.0	27.27119180004229	0.9978072999801952
3	8.268155900004786	stim	2		50	surprise	0.05	1.0	2000.0	1.0	28.268999100022484	0.5004720000142697
4	8.768627900019055	stim	0		0	surprise	0.05	1.0	2000.0	1.0	28.769471100036753	0.0024511999799869955
4	8.771079099999042	stim	1		100	surprise	0.05	1.0	2000.0	1.0	28.77192230001674	0.9972238000191282
4	9.76830290001817	stim	2		50	surprise	0.05	1.0	2000.0	1.0	29.76914610003587	0.4992922999954317
5	10.267595200013602	stim	0		0	surprise	0.05	1.0	2000.0	1.0	30.2684384000313	0.002166999998735264
5	10.269762200012337	stim	1		100	surprise	0.05	1.0	2000.0	1.0	30.270605400030036	0.9979076999879908
5	11.267669900000328	stim	2		50	surprise	0.05	1.0	2000.0	1.0	31.268513100018026	0.49897580000106245
6	11.76664570000139	stim	0		0	surprise	0.05	1.0	2000.0	1.0	31.76748890001909	0.002144800004316494
6	11.768790500005707	stim	1		99	surprise	0.05	1.0	2000.0	1.0	31.769633700023405	0.9889772000024095
6	12.757767700008117	stim	2		51	surprise	0.05	1.0	2000.0	1.0	32.758610900025815	0.5095922999898903
7	13.267359999998007	stim	0		0	surprise	0.05	1.0	2000.0	1.0	33.268203200015705	0.0027917000115849078
7	13.270151700009592	stim	1		100	surprise	0.05	1.0	2000.0	1.0	33.27099490002729	0.9969410999910906
7	14.267092800000682	stim	2		50	surprise	0.05	1.0	2000.0	1.0	34.26793600001838	0.49972010002238676
8	14.76681290002307	stim	0		0	surprise	0.05	1.0	2000.0	1.0	34.76765610004077	0.0023006999981589615
8	14.769113600021228	stim	1		100	surprise	0.05	1.0	2000.0	1.0	34.769956800038926	0.9980021999799646
8	15.767115800001193	stim	2		50	surprise	0.05	1.0	2000.0	1.0	35.76795900001889	0.49974769999971613
9	16.26686350000091	stim	0		0	surprise	0.05	1.0	2000.0	1.0	36.26770670001861	0.0021311000164132565
9	16.268994600017322	stim	1		100	surprise	0.05	1.0	2000.0	1.0	36.26983780003502	0.9986025999824051
9	17.267597199999727	stim	2		50	surprise	0.05	1.0	2000.0	1.0	37.268440400017425	0.5051197000138927
10	17.77271690001362	stim	0		0	surprise	0.05	1.0	2000.0	1.0	37.77356010003132	0.00281949999043718
10	17.775536400004057	stim	1		100	surprise	0.05	1.0	2000.0	1.0	37.776379600021755	0.9926851000054739
10	18.76822150000953	stim	2		50	surprise	0.05	1.0	2000.0	1.0	38.76906470002723	0.49990019999677315
11	19.268121700006304	stim	0		0	surprise	0.05	1.0	2000.0	1.0	39.268964900024	0.00231430001440458
11	19.27043600002071	stim	1		100	surprise	0.05	1.0	2000.0	1.0	39.27127920003841	0.9977660999866202
11	20.26820210000733	stim	2		50	surprise	0.05	1.0	2000.0	1.0	40.26904530002503	0.500218400004087
12	20.768420500011416	stim	0		0	surprise	0.05	1.0	2000.0	1.0	40.769263700029114	0.0022504999942611903
12	20.770671000005677	stim	1		100	surprise	0.05	1.0	2000.0	1.0	40.771514200023375	0.9974446000123862
12	21.768115600018064	stim	2		50	surprise	0.05	1.0	2000.0	1.0	41.76895880003576	0.500074699986726
13	22.26819030000479	stim	0		0	surprise	0.05	1.0	2000.0	1.0	42.26903350002249	0.0022652000188827515
13	22.270455500023672	stim	1		100	surprise	0.05	1.0	2000.0	1.0	42.27129870004137	0.9979823999747168
13	23.26843789999839	stim	2		50	surprise	0.05	1.0	2000.0	1.0	43.26928110001609	0.4999893000058364
14	23.768427200004226	stim	0		0	surprise	0.05	1.0	2000.0	1.0	43.769270400021924	0.002077700017252937
14	23.77050490002148	stim	1		100	surprise	0.05	1.0	2000.0	1.0	43.77134810003918	0.9978906000033021
14	24.76839550002478	stim	2		50	surprise	0.05	1.0	2000.0	1.0	44.76923870004248	0.49953699999605305
15	25.267932500020834	stim	0		0	surprise	0.05	1.0	2000.0	1.0	45.26877570003853	0.002455699985148385
15	25.270388200005982	stim	1		100	surprise	0.05	1.0	2000.0	1.0	45.27123140002368	0.9981815000064671
15	26.26856970001245	stim	2		50	surprise	0.05	1.0	2000.0	1.0	46.26941290003015	0.5003453000099398
16	26.76891500002239	stim	0		0	surprise	0.05	1.0	2000.0	1.0	46.76975820004009	0.002223699993919581
16	26.77113870001631	stim	1		100	surprise	0.05	1.0	2000.0	1.0	46.77198190003401	0.9962293999851681
16	27.767368100001477	stim	2		50	surprise	0.05	1.0	2000.0	1.0	47.768211300019175	0.5000742000120226
17	28.2674423000135	stim	0		0	surprise	0.05	1.0	2000.0	1.0	48.2682855000312	0.002584400004707277
17	28.270026700018207	stim	1		100	surprise	0.05	1.0	2000.0	1.0	48.270869900035905	0.9973410999809857
17	29.267367799999192	stim	2		50	surprise	0.05	1.0	2000.0	1.0	49.26821100001689	0.4997571000130847
18	29.767124900012277	stim	0		0	surprise	0.05	1.0	2000.0	1.0	49.767968100029975	0.002443600009428337
18	29.769568500021705	stim	1		100	surprise	0.05	1.0	2000.0	1.0	49.7704117000394	0.9986849999986589
18	30.768253500020364	stim	2		50	surprise	0.05	1.0	2000.0	1.0	50.76909670003806	0.498791899997741
19	31.267045400018105	stim	0		0	surprise	0.05	1.0	2000.0	1.0	51.2678886000358	0.002322999993339181
19	31.269368400011444	stim	1		100	surprise	0.05	1.0	2000.0	1.0	51.27021160002914	0.9984972999955062
19	32.26786570000695	stim	2		50	surprise	0.05	1.0	2000.0	1.0	52.26870890002465	0.5000164000084624
20	32.76788210001541	stim	0		0	surprise	0.05	1.0	2000.0	1.0	52.76872530003311	0.002069100009975955
20	32.76995120002539	stim	1		100	surprise	0.05	1.0	2000.0	1.0	52.77079440004309	0.9978705999965314
20	33.76782180002192	stim	2		50	surprise	0.05	1.0	2000.0	1.0	53.76866500003962	0.5000639999925625
21	34.26788580001448	stim	0		0	surprise	0.05	1.0	2000.0	1.0	54.26872900003218	0.002218499983428046
21	34.27010429999791	stim	1		100	surprise	0.05	1.0	2000.0	1.0	54.27094750001561	0.9982751000206918
21	35.2683794000186	stim	2		50	surprise	0.05	1.0	2000.0	1.0	55.2692226000363	0.49990679998882115
22	35.768286200007424	stim	0		0	surprise	0.05	1.0	2000.0	1.0	55.76912940002512	0.0026763000059872866
22	35.77096250001341	stim	1		100	surprise	0.05	1.0	2000.0	1.0	55.77180570003111	0.9978924999886658
22	36.76885500000208	stim	2		50	surprise	0.05	1.0	2000.0	1.0	56.769698200019775	0.4995182999991812
23	37.26837330000126	stim	0		0	surprise	0.05	1.0	2000.0	1.0	57.269216500018956	0.002361000020755455
23	37.27073430002201	stim	1		100	surprise	0.05	1.0	2000.0	1.0	57.27157750003971	0.9976958000042941
23	38.26843010002631	stim	2		50	surprise	0.05	1.0	2000.0	1.0	58.269273300044006	0.5000348999747075
24	38.768465000001015	stim	0		0	surprise	0.05	1.0	1000.0	0.9804947171720192	58.76930820001871	0.0022567000123672187
24	38.77072170001338	stim	1		100	surprise	0.05	1.0	1000.0	0.9804947171720192	58.77156490003108	0.9978926999901887
24	39.76861440000357	stim	2		50	surprise	0.05	1.0	1000.0	0.9804947171720192	59.76945760002127	0.49997800000710413
25	40.268592400010675	stim	0		0	surprise	0.05	1.0	2000.0	1.0	60.26943560002837	0.002015300007769838
25	40.270607700018445	stim	1		100	surprise	0.05	1.0	2000.0	1.0	60.27145090003614	0.997889899997972
25	41.26849760001642	stim	2		50	surprise	0.05	1.0	2000.0	1.0	61.269340800034115	0.5003382999857422
26	41.76883590000216	stim	0		0	surprise	0.05	1.0	1000.0	0.9804947171720192	61.76967910001986	0.0022865000064484775
26	41.77112240000861	stim	1		100	surprise	0.05	1.0	1000.0	0.9804947171720192	61.771965600026306	0.9979828000068665
26	42.769105200015474	stim	2		50	surprise	0.05	1.0	1000.0	0.9804947171720192	62.76994840003317	0.4997776999953203
27	43.268882900010794	stim	0		0	surprise	0.05	-1.0	1000.0	0.9804947171720192	63.26972610002849	0.002352200011955574
27	43.27123510002275	stim	1		100	surprise	0.05	-1.0	1000.0	0.9804947171720192	63.27207830004045	0.9979219999804627
27	44.26915710000321	stim	2		50	surprise	0.05	-1.0	1000.0	0.9804947171720192	64.27000030002091	0.4987955999968108
28	44.76795270000002	stim	0		0	surprise	0.05	-1.0	2000.0	1.0	64.76879590001772	0.0022939000045880675
28	44.77024660000461	stim	1		100	surprise	0.05	-1.0	2000.0	1.0	64.77108980002231	0.9979699999967124
28	45.768216600001324	stim	2		50	surprise	0.05	-1.0	2000.0	1.0	65.76905980001902	0.4999829000153113
29	46.268199500016635	stim	0		0	surprise	0.05	-1.0	2000.0	1.0	66.26904270003433	0.0020340000046417117
29	46.27023350002128	stim	1		100	surprise	0.05	-1.0	2000.0	1.0	66.27107670003898	0.9977451000013389
29	47.267978600022616	stim	2		50	surprise	0.05	-1.0	2000.0	1.0	67.26882180004031	0.5027907000039704
30	47.770769300026586	stim	0		0	surprise	0.05	1.0	2000.0	1.0	67.77161250004428	0.0025723999715410173
30	47.77334169999813	stim	1		100	surprise	0.05	1.0	2000.0	1.0	67.77418490001583	0.9945382000005338
30	48.76787989999866	stim	2		50	surprise	0.05	1.0	2000.0	1.0	68.76872310001636	0.49967040002229623
31	49.26755030002096	stim	0		0	surprise	0.05	1.0	2000.0	1.0	69.26839350003866	0.0021701999939978123
31	49.269720500014955	stim	1		100	surprise	0.05	1.0	2000.0	1.0	69.27056370003265	0.9982522999926005
31	50.267972800007556	stim	2		50	surprise	0.05	1.0	2000.0	1.0	70.26881600002525	0.49964240001281723
32	50.76761520002037	stim	0		0	surprise	0.05	1.0	2000.0	1.0	70.76845840003807	0.002316800004336983
32	50.76993200002471	stim	1		100	surprise	0.05	1.0	2000.0	1.0	70.77077520004241	0.9991006999916863
32	51.769032700016396	stim	2		50	surprise	0.05	1.0	2000.0	1.0	71.7698759000341	0.4998543999972753
33	52.26888710001367	stim	0		0	surprise	0.05	1.0	2000.0	1.0	72.26973030003137	0.002612599986605346
33	52.27149970000028	stim	1		99	surprise	0.05	1.0	2000.0	1.0	72.27234290001797	0.9973392000247259
33	53.268838900025	stim	2		50	surprise	0.05	1.0	2000.0	1.0	73.2696821000427	0.5000683999969624
34	53.768907300021965	stim	0		0	surprise	0.05	1.0	2000.0	1.0	73.76975050003966	0.002338699996471405
34	53.77124600001844	stim	1		100	surprise	0.05	1.0	2000.0	1.0	73.77208920003613	0.9977794000005815
34	54.76902540001902	stim	2		50	surprise	0.05	1.0	2000.0	1.0	74.76986860003672	0.49975980000454
35	55.26878520002356	stim	0		0	surprise	0.05	1.0	2000.0	1.0	75.26962840004126	0.0023358999751508236
35	55.27112109999871	stim	1		100	surprise	0.05	1.0	2000.0	1.0	75.2719643000164	0.9980887999990955
35	56.269209899997804	stim	2		50	surprise	0.05	1.0	2000.0	1.0	76.2700531000155	0.49988760001724586
36	56.76909750001505	stim	0		0	surprise	0.05	1.0	2000.0	1.0	76.76994070003275	0.0026080000097863376
36	56.77170550002484	stim	1		100	surprise	0.05	1.0	2000.0	1.0	76.77254870004253	0.997746199980611
36	57.76945170000545	stim	2		50	surprise	0.05	1.0	2000.0	1.0	77.77029490002315	0.49971329999971204
37	58.26916500000516	stim	0		0	surprise	0.05	1.0	2000.0	1.0	78.27000820002286	0.0026826999965123832
37	58.27184770000167	stim	1		100	surprise	0.05	1.0	2000.0	1.0	78.27269090001937	0.9973817999998573
37	59.26922950000153	stim	2		50	surprise	0.05	1.0	2000.0	1.0	79.27007270001923	0.5000555000151508
38	59.76928500001668	stim	0		0	surprise	0.05	-1.0	1000.0	0.9804947171720192	79.77012820003438	0.002275000006193295
38	59.77156000002287	stim	1		100	surprise	0.05	-1.0	1000.0	0.9804947171720192	79.77240320004057	0.9979075999872293
38	60.7694676000101	stim	2		50	surprise	0.05	-1.0	1000.0	0.9804947171720192	80.7703108000278	0.4983314000128303
39	61.26779900002293	stim	0		0	surprise	0.05	-1.0	1000.0	0.9804947171720192	81.26864220004063	0.0024400999827776104
39	61.27023910000571	stim	1		100	surprise	0.05	-1.0	1000.0	0.9804947171720192	81.27108230002341	0.9978055999963544
39	62.268044700002065	stim	2		50	surprise	0.05	-1.0	1000.0	0.9804947171720192	82.26888790001976	0.49999470001785085
40	62.768039400019916	stim	0		0	surprise	0.05	-1.0	1000.0	0.9804947171720192	82.76888260003761	0.0022393999970518053
40	62.77027880001697	stim	1		100	surprise	0.05	-1.0	1000.0	0.9804947171720192	82.77112200003467	0.9983993000059854
40	63.76867810002295	stim	2		50	surprise	0.05	-1.0	1000.0	0.9804947171720192	83.76952130004065	0.4997908999794163
41	64.26846900000237	stim	0		0	surprise	0.05	-1.0	1000.0	0.9804947171720192	84.26931220002007	0.0021130999957676977
41	64.27058209999814	stim	1		100	surprise	0.05	-1.0	1000.0	0.9804947171720192	84.27142530001584	0.9984050000202842
41	65.26898710001842	stim	2		50	surprise	0.05	-1.0	1000.0	0.9804947171720192	85.26983030003612	0.49964100000215694
42	65.76862810002058	stim	0		0	surprise	0.05	-1.0	1000.0	0.9804947171720192	85.76947130003828	0.001949500001501292
42	65.77057760002208	stim	1		100	surprise	0.05	-1.0	1000.0	0.9804947171720192	85.77142080003978	0.9980653999955393
42	66.76864300001762	stim	2		50	surprise	0.05	-1.0	1000.0	0.9804947171720192	86.76948620003532	0.4997972999990452
43	67.26844030001666	stim	0		0	surprise	0.05	-1.0	1000.0	0.9804947171720192	87.26928350003436	0.0023218999849632382
43	67.27076220000163	stim	1		100	surprise	0.05	-1.0	1000.0	0.9804947171720192	87.27160540001933	0.9983944999985397
43	68.26915670000017	stim	2		50	surprise	0.05	-1.0	1000.0	0.9804947171720192	88.26999990001787	0.5000405000173487
44	68.76919720001752	stim	0		0	surprise	0.05	1.0	2000.0	1.0	88.77004040003521	0.002837499981978908
44	68.7720346999995	stim	1		100	surprise	0.05	1.0	2000.0	1.0	88.77287790001719	0.997092600009637
44	69.76912730000913	stim	2		50	surprise	0.05	1.0	2000.0	1.0	89.76997050002683	0.4999887000012677
45	70.2691160000104	stim	0		0	surprise	0.05	1.0	2000.0	1.0	90.2699592000281	0.002119200013112277
45	70.27123520002351	stim	1		100	surprise	0.05	1.0	2000.0	1.0	90.27207840004121	0.9978423999855295
45	71.26907760000904	stim	2		50	surprise	0.05	1.0	2000.0	1.0	91.26992080002674	0.5004594000056386
46	71.76953700001468	stim	0		0	surprise	0.05	-1.0	1000.0	0.9804947171720192	91.77038020003238	0.002433199988445267
46	71.77197020000312	stim	1		100	surprise	0.05	-1.0	1000.0	0.9804947171720192	91.77281340002082	0.9971030000015162
46	72.76907320000464	stim	2		50	surprise	0.05	-1.0	1000.0	0.9804947171720192	92.76991640002234	0.5004328000068199
47	73.26950600001146	stim	0		0	surprise	0.05	-1.0	1000.0	0.9804947171720192	93.27034920002916	0.0024249000125564635
47	73.27193090002402	stim	1		100	surprise	0.05	-1.0	1000.0	0.9804947171720192	93.27277410004172	0.9973707999743056
47	74.26930169999832	stim	2		50	surprise	0.05	-1.0	1000.0	0.9804947171720192	94.27014490001602	0.4997861000010744
48	74.7690877999994	stim	0		0	surprise	0.05	-1.0	1000.0	0.9804947171720192	94.7699310000171	0.0023932000040076673
48	74.7714810000034	stim	1		100	surprise	0.05	-1.0	1000.0	0.9804947171720192	94.7723242000211	0.9986579999967944
48	75.7701390000002	stim	2		50	surprise	0.05	-1.0	1000.0	0.9804947171720192	95.7709822000179	0.499538100004429
49	76.26967710000463	stim	0		0	surprise	0.05	-1.0	1000.0	0.9804947171720192	96.27052030002233	0.002466300007654354
49	76.27214340001228	stim	1		100	surprise	0.05	-1.0	1000.0	0.9804947171720192	96.27298660002998	0.9977878000063356
49	77.26993120001862	stim	2		50	surprise	0.05	-1.0	1000.0	0.9804947171720192	97.27077440003632	0.4997490999812726
50	77.76968029999989	stim	0		0	surprise	0.05	-1.0	1000.0	0.9804947171720192	97.77052350001759	0.0022889000247232616
50	77.77196920002461	stim	1		100	surprise	0.05	-1.0	1000.0	0.9804947171720192	97.77281240004231	0.9967715999810025
50	78.76874080000562	stim	2		50	surprise	0.05	-1.0	1000.0	0.9804947171720192	98.76958400002331	0.5000632000155747
51	79.26880400002119	stim	0		0	surprise	0.05	-1.0	1000.0	0.9804947171720192	99.26964720003889	0.0020534999785013497
51	79.27085749999969	stim	1		100	surprise	0.05	-1.0	1000.0	0.9804947171720192	99.27170070001739	0.9980789000110235
51	80.26893640001072	stim	2		50	surprise	0.05	-1.0	1000.0	0.9804947171720192	100.26977960002841	0.4997628999990411
52	80.76869930000976	stim	0		0	surprise	0.05	-1.0	1000.0	0.9804947171720192	100.76954250002746	0.0023092000046744943
52	80.77100850001443	stim	1		100	surprise	0.05	-1.0	1000.0	0.9804947171720192	100.77185170003213	0.9978696999896783
52	81.76887820000411	stim	2		50	surprise	0.05	-1.0	1000.0	0.9804947171720192	101.76972140002181	0.49996790001750924
53	82.26884610002162	stim	0		0	surprise	0.05	1.0	2000.0	1.0	102.26968930003932	0.0023395000025629997
53	82.27118560002418	stim	1		100	surprise	0.05	1.0	2000.0	1.0	102.27202880004188	0.9975517999846488
53	83.26873740000883	stim	2		50	surprise	0.05	1.0	2000.0	1.0	103.26958060002653	0.49996280000777915
54	83.76870020001661	stim	0		0	surprise	0.05	1.0	2000.0	1.0	103.76954340003431	0.0021967999928165227
54	83.77089700000943	stim	1		100	surprise	0.05	1.0	2000.0	1.0	103.77174020002712	0.9985558000043966
54	84.76945280001382	stim	2		50	surprise	0.05	1.0	2000.0	1.0	104.77029600003152	0.5034261000109836
55	85.2728789000248	stim	0		0	surprise	0.05	1.0	2000.0	1.0	105.2737221000425	0.002145899983588606
55	85.2750248000084	stim	1		100	surprise	0.05	1.0	2000.0	1.0	105.2758680000261	0.9949403000064194
55	86.26996510001482	stim	2		49	surprise	0.05	1.0	2000.0	1.0	106.27080830003251	0.4888978000089992
56	86.75886290002381	stim	0		0	surprise	0.05	1.0	2000.0	1.0	106.75970610004151	0.0021813999919686466
56	86.76104430001578	stim	1		101	surprise	0.05	1.0	2000.0	1.0	106.76188750003348	1.008392499992624
56	87.7694368000084	stim	2		50	surprise	0.05	1.0	2000.0	1.0	107.7702800000261	0.5002824999974109
57	88.26971930000582	stim	0		0	surprise	0.05	1.0	2000.0	1.0	108.27056250002352	0.0019864000205416232
57	88.27170570002636	stim	1		100	surprise	0.05	1.0	2000.0	1.0	108.27254890004406	0.998068399989279
57	89.26977410001564	stim	2		50	surprise	0.05	1.0	2000.0	1.0	109.27061730003334	0.5002186000056099
58	89.76999270002125	stim	0		0	surprise	0.05	1.0	2000.0	1.0	109.77083590003895	0.0019745999888982624
58	89.77196730001015	stim	1		100	surprise	0.05	1.0	2000.0	1.0	109.77281050002784	0.9984577000141144
58	90.77042500002426	stim	2		50	surprise	0.05	1.0	2000.0	1.0	110.77126820004196	0.49971789997653104
59	91.27014290000079	stim	0		0	surprise	0.05	1.0	2000.0	1.0	111.27098610001849	0.002194100001361221
59	91.27233700000215	stim	1		100	surprise	0.05	1.0	2000.0	1.0	111.27318020001985	0.9976637000218034
59	92.27000070002396	stim	2		50	surprise	0.05	1.0	2000.0	1.0	112.27084390004165	0.4996028000023216
60	92.76960350002628	stim	0		0	surprise	0.05	1.0	2000.0	1.0	112.77044670004398	0.0020488999725785106
60	92.77165239999886	stim	1		100	surprise	0.05	1.0	2000.0	1.0	112.77249560001655	0.9983969000168145
60	93.77004930001567	stim	2		50	surprise	0.05	1.0	2000.0	1.0	113.77089250003337	0.499855000001844
61	94.26990430001752	stim	0		0	surprise	0.05	-1.0	1000.0	0.9804947171720192	114.27074750003521	0.002354900003410876
61	94.27225920002093	stim	1		100	surprise	0.05	-1.0	1000.0	0.9804947171720192	114.27310240003862	0.9968588000047021
61	95.26911800002563	stim	2		50	surprise	0.05	-1.0	1000.0	0.9804947171720192	115.26996120004333	0.499885400000494
62	95.76900340002612	stim	0		0	surprise	0.05	-1.0	1000.0	0.9804947171720192	115.76984660004382	0.002132999972673133
62	95.7711363999988	stim	1		100	surprise	0.05	-1.0	1000.0	0.9804947171720192	115.7719796000165	0.9977665000187699
62	96.76890290001757	stim	2		50	surprise	0.05	-1.0	1000.0	0.9804947171720192	116.76974610003526	0.49981649999972433
63	97.26871940001729	stim	0		0	surprise	0.05	-1.0	1000.0	0.9804947171720192	117.26956260003499	0.0025273000064771622
63	97.27124670002377	stim	1		100	surprise	0.05	-1.0	1000.0	0.9804947171720192	117.27208990004146	0.997754799987888
63	98.26900150001165	stim	2		50	surprise	0.05	-1.0	1000.0	0.9804947171720192	118.26984470002935	0.49994340000557713
64	98.76894490001723	stim	0		0	surprise	0.05	-1.0	1000.0	0.9804947171720192	118.76978810003493	0.002339600003324449
64	98.77128450002056	stim	1		100	surprise	0.05	-1.0	1000.0	0.9804947171720192	118.77212770003825	0.9983247999916784
64	99.76960930001223	stim	2		50	surprise	0.05	-1.0	1000.0	0.9804947171720192	119.77045250002993	0.49973519999184646
65	100.26934450000408	stim	0		0	surprise	0.05	-1.0	1000.0	0.9804947171720192	120.27018770002178	0.002074799995170906
65	100.27141929999925	stim	1		100	surprise	0.05	-1.0	1000.0	0.9804947171720192	120.27226250001695	0.9986173000070266
65	101.27003660000628	stim	2		50	surprise	0.05	-1.0	1000.0	0.9804947171720192	121.27087980002398	0.49994010000955313
66	101.76997670001583	stim	0		0	surprise	0.05	-1.0	2000.0	1.0	121.77081990003353	0.002369199995882809
66	101.77234590001171	stim	1		100	surprise	0.05	-1.0	2000.0	1.0	121.77318910002941	0.9977215999970213
66	102.77006750000874	stim	2		50	surprise	0.05	-1.0	2000.0	1.0	122.77091070002643	0.49989030000870116
67	103.26995780001744	stim	0		0	surprise	0.05	1.0	2000.0	1.0	123.27080100003514	0.002317100006621331
67	103.27227490002406	stim	1		100	surprise	0.05	1.0	2000.0	1.0	123.27311810004176	0.9975604999926873
67	104.26983540001675	stim	2		50	surprise	0.05	1.0	2000.0	1.0	124.27067860003444	0.5002223000046797
68	104.77005770002143	stim	0		0	surprise	0.05	1.0	2000.0	1.0	124.77090090003912	0.0021557000000029802
68	104.77221340002143	stim	1		100	surprise	0.05	1.0	2000.0	1.0	124.77305660003913	0.9978828000021167
68	105.77009620002354	stim	2		50	surprise	0.05	1.0	2000.0	1.0	125.77093940004124	0.5000750999897718
69	106.27017130001332	stim	0		0	surprise	0.05	1.0	2000.0	1.0	126.27101450003101	0.0020115000079385936
69	106.27218280002126	stim	1		100	surprise	0.05	1.0	2000.0	1.0	126.27302600003895	0.9980441999796312
69	107.27022700000089	stim	2		50	surprise	0.05	1.0	2000.0	1.0	127.27107020001858	0.5000549000105821
70	107.77028190001147	stim	0		0	surprise	0.05	1.0	2000.0	1.0	127.77112510002917	0.0022501999919768423
70	107.77253210000345	stim	1		100	surprise	0.05	1.0	2000.0	1.0	127.77337530002114	0.9975683999946341
70	108.77010049999808	stim	2		50	surprise	0.05	1.0	2000.0	1.0	128.77094370001578	0.49991270000464283
71	109.27001320000272	stim	0		0	surprise	0.05	-1.0	1000.0	0.9804947171720192	129.27085640002042	0.002151200023945421
71	109.27216440002667	stim	1		100	surprise	0.05	-1.0	1000.0	0.9804947171720192	129.27300760004437	0.9987229999969713
71	110.27088740002364	stim	2		50	surprise	0.05	-1.0	1000.0	0.9804947171720192	130.27173060004134	0.4990533999807667
72	110.7699408000044	stim	0		0	surprise	0.05	-1.0	1000.0	0.9804947171720192	130.7707840000221	0.0022849999950267375
72	110.77222579999943	stim	1		100	surprise	0.05	-1.0	1000.0	0.9804947171720192	130.77306900001713	0.9969887000042945
72	111.76921450000373	stim	2		50	surprise	0.05	-1.0	1000.0	0.9804947171720192	131.77005770002143	0.5005745000089519
73	112.26978900001268	stim	0		0	surprise	0.05	-1.0	1000.0	0.9804947171720192	132.27063220003038	0.0027006999880541116
73	112.27248970000073	stim	1		100	surprise	0.05	-1.0	1000.0	0.9804947171720192	132.27333290001843	0.9971528000023682
73	113.2696425000031	stim	2		50	surprise	0.05	-1.0	1000.0	0.9804947171720192	133.2704857000208	0.49927300002309494
74	113.7689155000262	stim	0		0	surprise	0.05	-1.0	1000.0	0.9804947171720192	133.7697587000439	0.002248599979793653
74	113.77116410000599	stim	1		100	surprise	0.05	-1.0	1000.0	0.9804947171720192	133.7720073000237	0.998454100015806
74	114.7696182000218	stim	2		50	surprise	0.05	-1.0	1000.0	0.9804947171720192	134.7704614000395	0.5000945999927353
75	115.26971280001453	stim	0		0	surprise	0.05	-1.0	1000.0	0.9804947171720192	135.27055600003223	0.002157499984605238
75	115.27187029999914	stim	1		100	surprise	0.05	-1.0	1000.0	0.9804947171720192	135.27271350001683	0.997843900026055
75	116.26971420002519	stim	2		50	surprise	0.05	-1.0	1000.0	0.9804947171720192	136.2705574000429	0.49947149999206886
76	116.76918570001726	stim	0		0	surprise	0.05	-1.0	1000.0	0.9804947171720192	136.77002890003496	0.002119999990100041
76	116.77130570000736	stim	1		100	surprise	0.05	-1.0	1000.0	0.9804947171720192	136.77214890002506	0.9982001000025775
76	117.76950580000994	stim	2		50	surprise	0.05	-1.0	1000.0	0.9804947171720192	137.77034900002764	0.5007716999971308
77	118.27027750000707	stim	0		0	surprise	0.05	-1.0	1000.0	0.9804947171720192	138.27112070002477	0.002243599999928847
77	118.272521100007	stim	1		100	surprise	0.05	-1.0	1000.0	0.9804947171720192	138.2733643000247	0.9977159000118263
77	119.27023700001882	stim	2		50	surprise	0.05	-1.0	1000.0	0.9804947171720192	139.27108020003652	0.5001274999813177
78	119.77036450000014	stim	0		0	surprise	0.05	-1.0	1000.0	0.9804947171720192	139.77120770001784	0.002239599998574704
78	119.77260409999872	stim	1		100	surprise	0.05	-1.0	1000.0	0.9804947171720192	139.77344730001641	0.9985947000095621
78	120.77119880000828	stim	2		49	surprise	0.05	-1.0	1000.0	0.9804947171720192	140.77204200002598	0.4885622000147123
79	121.25976100002299	stim	0		0	surprise	0.05	-1.0	1000.0	0.9804947171720192	141.2606042000407	0.002409499982604757
79	121.2621705000056	stim	1		101	surprise	0.05	-1.0	1000.0	0.9804947171720192	141.2630137000233	1.0080770000058692
79	122.27024750001146	stim	2		49	surprise	0.05	-1.0	1000.0	0.9804947171720192	142.27109070002916	0.489522499992745
80	122.75977000000421	stim	0		0	surprise	0.05	-1.0	1000.0	0.9804947171720192	142.7606132000219	0.0020946000004187226
80	122.76186460000463	stim	1		100	surprise	0.05	-1.0	1000.0	0.9804947171720192	142.76270780002233	0.9981916999968234
80	123.76005630000145	stim	2		51	surprise	0.05	-1.0	1000.0	0.9804947171720192	143.76089950001915	0.5107621000206564
81	124.27081840002211	stim	0		0	surprise	0.05	-1.0	1000.0	0.9804947171720192	144.2716616000398	0.002228800003649667
81	124.27304720002576	stim	1		100	surprise	0.05	-1.0	1000.0	0.9804947171720192	144.27389040004346	0.9980053999752272
81	125.27105260000098	stim	2		50	surprise	0.05	-1.0	1000.0	0.9804947171720192	145.27189580001868	0.4996792000019923
82	125.77073180000298	stim	0		0	surprise	0.05	-1.0	1000.0	0.9804947171720192	145.77157500002068	0.0024794000200927258
82	125.77321120002307	stim	1		100	surprise	0.05	-1.0	1000.0	0.9804947171720192	145.77405440004077	0.9977401999931317
82	126.7709514000162	stim	2		50	surprise	0.05	-1.0	1000.0	0.9804947171720192	146.7717946000339	0.4999889000027906
83	127.27094030001899	stim	0		0	surprise	0.05	-1.0	1000.0	0.9804947171720192	147.2717835000367	0.0024160000029951334
83	127.27335630002199	stim	1		100	surprise	0.05	-1.0	1000.0	0.9804947171720192	147.27419950003969	0.9966270999866538
83	128.26998340000864	stim	2		50	surprise	0.05	-1.0	1000.0	0.9804947171720192	148.27082660002634	0.4994821000145748
84	128.76946550002322	stim	0		0	surprise	0.05	1.0	1000.0	0.9804947171720192	148.7703087000409	0.002312500000698492
84	128.77177800002391	stim	1		100	surprise	0.05	1.0	1000.0	0.9804947171720192	148.7726212000416	0.9981050999776926
84	129.7698831000016	stim	2		50	surprise	0.05	1.0	1000.0	0.9804947171720192	149.7707263000193	0.5001045000099111
85	130.26998760001152	stim	0		0	surprise	0.05	-1.0	1000.0	0.9804947171720192	150.27083080002922	0.002316800004336983
85	130.27230440001586	stim	1		100	surprise	0.05	-1.0	1000.0	0.9804947171720192	150.27314760003355	0.9974005999974906
85	131.26970500001335	stim	2		49	surprise	0.05	-1.0	1000.0	0.9804947171720192	151.27054820003104	0.4918452999845613
86	131.7615502999979	stim	0		0	surprise	0.05	-1.0	1000.0	0.9804947171720192	151.7623935000156	0.0021850000193808228
86	131.7637353000173	stim	1		101	surprise	0.05	-1.0	1000.0	0.9804947171720192	151.764578500035	1.0059216000081506
86	132.76965690002544	stim	2		50	surprise	0.05	-1.0	1000.0	0.9804947171720192	152.77050010004314	0.5000225999974646
87	133.2696795000229	stim	0		0	surprise	0.05	-1.0	1000.0	0.9804947171720192	153.2705227000406	0.0020182000007480383
87	133.27169770002365	stim	1		99	surprise	0.05	-1.0	1000.0	0.9804947171720192	153.27254090004135	0.990692699997453
87	134.2623904000211	stim	2		50	surprise	0.05	-1.0	1000.0	0.9804947171720192	154.2632336000388	0.49709639998036437
88	134.75948680000147	stim	0		0	surprise	0.05	-1.0	1000.0	0.9804947171720192	154.76033000001917	0.0023461000237148255
88	134.76183290002518	stim	1		101	surprise	0.05	-1.0	1000.0	0.9804947171720192	154.76267610004288	1.0089617999910843
88	135.77079470001627	stim	2		49	surprise	0.05	-1.0	1000.0	0.9804947171720192	155.77163790003397	0.4893154999881517
89	136.26011020000442	stim	0		0	surprise	0.05	-1.0	1000.0	0.9804947171720192	156.26095340002212	0.0023381000210065395
89	136.26244830002543	stim	1		100	surprise	0.05	-1.0	1000.0	0.9804947171720192	156.26329150004312	0.9977918999793474
89	137.26024020000477	stim	2		50	surprise	0.05	-1.0	1000.0	0.9804947171720192	157.26108340002247	0.4992637000104878
90	137.75950390001526	stim	0		0	surprise	0.05	-1.0	1000.0	0.9804947171720192	157.76034710003296	0.0022361000010278076
90	137.7617400000163	stim	1		100	surprise	0.05	-1.0	1000.0	0.9804947171720192	157.762583200034	0.9983804000075907
90	138.76012040002388	stim	2		50	surprise	0.05	-1.0	1000.0	0.9804947171720192	158.76096360004158	0.4999756999895908
91	139.26009610001347	stim	0		0	surprise	0.05	-1.0	1000.0	0.9804947171720192	159.26093930003117	0.0024059999850578606
91	139.26250209999853	stim	1		100	surprise	0.05	-1.0	1000.0	0.9804947171720192	159.26334530001623	0.99803780001821
91	140.26053990001674	stim	2		50	surprise	0.05	-1.0	1000.0	0.9804947171720192	160.26138310003444	0.499023499985924
92	140.75956340000266	stim	0		0	surprise	0.05	1.0	1000.0	0.9804947171720192	160.76040660002036	0.0021938999998383224
92	140.7617573000025	stim	1		101	surprise	0.05	1.0	1000.0	0.9804947171720192	160.7626005000202	1.009292300004745
92	141.77104960000725	stim	2		50	surprise	0.05	1.0	1000.0	0.9804947171720192	161.77189280002494	0.49990799999795854
93	142.2709576000052	stim	0		0	surprise	0.05	1.0	2000.0	1.0	162.2718008000229	0.0025542000075802207
93	142.27351180001278	stim	1		100	surprise	0.05	1.0	2000.0	1.0	162.27435500003048	0.9974037999927532
93	143.27091560000554	stim	2		50	surprise	0.05	1.0	2000.0	1.0	163.27175880002324	0.4997276000212878
94	143.77064320002683	stim	0		0	surprise	0.05	1.0	2000.0	1.0	163.77148640004452	0.002090399997541681
94	143.77273360002437	stim	1		100	surprise	0.05	1.0	2000.0	1.0	163.77357680004206	0.9971525000000838
94	144.76988610002445	stim	2		50	surprise	0.05	1.0	2000.0	1.0	164.77072930004215	0.500100899982499
95	145.26998700000695	stim	0		0	surprise	0.05	1.0	2000.0	1.0	165.27083020002465	0.0022628000006079674
95	145.27224980000756	stim	1		100	surprise	0.05	1.0	2000.0	1.0	165.27309300002526	0.9978132999967784
95	146.27006310000434	stim	2		49	surprise	0.05	1.0	2000.0	1.0	166.27090630002203	0.49148550000973046
96	146.76154860001407	stim	0		0	surprise	0.05	1.0	2000.0	1.0	166.76239180003176	0.0023113999923225492
96	146.7638600000064	stim	1		101	surprise	0.05	1.0	2000.0	1.0	166.7647032000241	1.006624900008319
96	147.7704849000147	stim	2		49	surprise	0.05	1.0	2000.0	1.0	167.7713281000324	0.490913499990711
97	148.26139840000542	stim	0		0	surprise	0.05	1.0	2000.0	1.0	168.26224160002312	0.002137100003892556
97	148.2635355000093	stim	1		100	surprise	0.05	1.0	2000.0	1.0	168.264378700027	0.9977666999911889
97	149.2613022000005	stim	2		49	surprise	0.05	1.0	2000.0	1.0	169.2621454000182	0.5000312000047415
98	149.76133340000524	stim	0		0	surprise	0.05	1.0	2000.0	1.0	169.76217660002294	0.0023400000063702464
98	149.7636734000116	stim	1		100	surprise	0.05	1.0	2000.0	1.0	169.7645166000293	0.9981726999976672
98	150.76184610000928	stim	2		50	surprise	0.05	1.0	2000.0	1.0	170.76268930002698	0.49913790001301095
99	151.2609840000223	stim	0		0	surprise	0.05	1.0	2000.0	1.0	171.26182720004	0.002453399996738881
99	151.26343740001903	stim	1		100	surprise	0.05	1.0	2000.0	1.0	171.26428060003673	0.9969752999895718
99	152.2604127000086	stim	2		50	surprise	0.05	1.0	2000.0	1.0	172.2612559000263	0.49986430001445115
100	152.76027700002305	stim	0		0	surprise	0.05	1.0	2000.0	1.0	172.76112020004075	0.0021850999910384417
100	152.7624621000141	stim	1		100	surprise	0.05	1.0	2000.0	1.0	172.7633053000318	0.9978391999902669
100	153.76030130000436	stim	2		50	surprise	0.05	1.0	2000.0	1.0	173.76114450002206	0.49946650001220405
101	154.25976780001656	stim	0		0	surprise	0.05	1.0	2000.0	1.0	174.26061100003426	0.0024840999976731837
101	154.26225190001423	stim	1		100	surprise	0.05	1.0	2000.0	1.0	174.26309510003193	0.9988637999922503
101	155.26111570000648	stim	2		50	surprise	0.05	1.0	2000.0	1.0	175.26195890002418	0.4989439000200946
102	155.76005960002658	stim	0		0	surprise	0.05	-1.0	1000.0	0.9804947171720192	175.76090280004428	0.002317799982847646
102	155.76237740000943	stim	1		100	surprise	0.05	-1.0	1000.0	0.9804947171720192	175.76322060002713	0.9979022000043187
102	156.76027960001375	stim	2		50	surprise	0.05	-1.0	1000.0	0.9804947171720192	176.76112280003144	0.4997160999919288
103	157.25999570000567	stim	0		0	surprise	0.05	-1.0	2000.0	1.0	177.26083890002337	0.002139899996109307
103	157.26213560000178	stim	1		101	surprise	0.05	-1.0	2000.0	1.0	177.26297880001948	1.0089356000244152
103	158.2710712000262	stim	2		50	surprise	0.05	-1.0	2000.0	1.0	178.2719144000439	0.4998862999782432
104	158.77095750000444	stim	0		0	surprise	0.05	-1.0	1000.0	0.9804947171720192	178.77180070002214	0.0023754000139888376
104	158.77333290001843	stim	1		100	surprise	0.05	-1.0	1000.0	0.9804947171720192	178.77417610003613	0.9984361999959219
104	159.77176910001435	stim	2		49	surprise	0.05	-1.0	1000.0	0.9804947171720192	179.77261230003205	0.48968550001154654
105	160.2614546000259	stim	0		0	surprise	0.05	-1.0	1000.0	0.9804947171720192	180.2622978000436	0.0022988999844528735
105	160.26375350001035	stim	1		101	surprise	0.05	-1.0	1000.0	0.9804947171720192	180.26459670002805	1.0078291000099853
105	161.27158260002034	stim	2		50	surprise	0.05	-1.0	1000.0	0.9804947171720192	181.27242580003804	0.4986542999977246
106	161.77023690001806	stim	0		0	surprise	0.05	-1.0	1000.0	0.9804947171720192	181.77108010003576	0.0024874999944586307
106	161.77272440001252	stim	1		100	surprise	0.05	-1.0	1000.0	0.9804947171720192	181.77356760003022	0.9979046999942511
106	162.77062910000677	stim	2		50	surprise	0.05	-1.0	1000.0	0.9804947171720192	182.77147230002447	0.500061700004153
107	163.27069080001093	stim	0		0	surprise	0.05	-1.0	1000.0	0.9804947171720192	183.27153400002862	0.002478600014001131
107	163.27316940002493	stim	1		99	surprise	0.05	-1.0	1000.0	0.9804947171720192	183.27401260004262	0.988539399986621
107	164.26170880001155	stim	2		51	surprise	0.05	-1.0	1000.0	0.9804947171720192	184.26255200002925	0.5084110999887343
108	164.77011990000028	stim	0		0	surprise	0.05	-1.0	2000.0	1.0	184.77096310001798	0.002151599997887388
108	164.77227149999817	stim	1		99	surprise	0.05	-1.0	2000.0	1.0	184.77311470001587	0.9893990000127815
108	165.76167050001095	stim	2		50	surprise	0.05	-1.0	2000.0	1.0	185.76251370002865	0.4998519000073429
109	166.2615224000183	stim	0		0	surprise	0.05	-1.0	2000.0	1.0	186.262365600036	0.002081299986457452
109	166.26360370000475	stim	1		100	surprise	0.05	-1.0	2000.0	1.0	186.26444690002245	0.9979249000025447
109	167.2615286000073	stim	2		50	surprise	0.05	-1.0	2000.0	1.0	187.262371800025	0.4999039999966044
110	167.7614326000039	stim	0		0	surprise	0.05	-1.0	1000.0	0.9804947171720192	187.7622758000216	0.0022450000105891377
110	167.7636776000145	stim	1		100	surprise	0.05	-1.0	1000.0	0.9804947171720192	187.7645208000322	0.9974683999898843
110	168.76114600000437	stim	2		50	surprise	0.05	-1.0	1000.0	0.9804947171720192	188.76198920002207	0.49930540000787005
111	169.26045140001224	stim	0		0	surprise	0.05	-1.0	1000.0	0.9804947171720192	189.26129460002994	0.0023975000076461583
111	169.2628489000199	stim	1		100	surprise	0.05	-1.0	1000.0	0.9804947171720192	189.2636921000376	0.9984378999797627
111	170.26128679999965	stim	2		50	surprise	0.05	-1.0	1000.0	0.9804947171720192	190.26213000001735	0.499140100000659
112	170.7604269000003	stim	0		0	surprise	0.05	-1.0	1000.0	0.9804947171720192	190.761270100018	0.0023039000225253403
112	170.76273080002284	stim	1		100	surprise	0.05	-1.0	1000.0	0.9804947171720192	190.76357400004053	0.998192899976857
112	171.7609236999997	stim	2		50	surprise	0.05	-1.0	1000.0	0.9804947171720192	191.7617669000174	0.5004250000056345
113	172.26134870000533	stim	0		0	surprise	0.05	-1.0	1000.0	0.9804947171720192	192.26219190002303	0.003209899994544685
113	172.26455859999987	stim	1		100	surprise	0.05	-1.0	1000.0	0.9804947171720192	192.26540180001757	0.9964096000185236
113	173.2609682000184	stim	2		50	surprise	0.05	-1.0	1000.0	0.9804947171720192	193.2618114000361	0.4993687999958638
114	173.76033700001426	stim	0		0	surprise	0.05	-1.0	1000.0	0.9804947171720192	193.76118020003196	0.002439800009597093
114	173.76277680002386	stim	1		100	surprise	0.05	-1.0	1000.0	0.9804947171720192	193.76362000004156	0.9985546999960206
114	174.76133150001988	stim	2		51	surprise	0.05	-1.0	1000.0	0.9804947171720192	194.76217470003758	0.5104530999960843
115	175.27178460001596	stim	0		0	surprise	0.05	-1.0	1000.0	0.9804947171720192	195.27262780003366	0.002382600010605529
115	175.27416720002657	stim	1		99	surprise	0.05	-1.0	1000.0	0.9804947171720192	195.27501040004427	0.9872000999748707
115	176.26136730000144	stim	2		50	surprise	0.05	-1.0	1000.0	0.9804947171720192	196.26221050001914	0.5010008000244852
116	176.76236810002592	stim	0		0	surprise	0.05	-1.0	1000.0	0.9804947171720192	196.76321130004362	0.002423999976599589
116	176.76479210000252	stim	1		100	surprise	0.05	-1.0	1000.0	0.9804947171720192	196.76563530002022	0.9966395000228658
116	177.7614316000254	stim	2		51	surprise	0.05	-1.0	1000.0	0.9804947171720192	197.7622748000431	0.5093748999934178
117	178.2708065000188	stim	0		0	surprise	0.05	-1.0	1000.0	0.9804947171720192	198.2716497000365	0.002222499984782189
117	178.2730290000036	stim	1		99	surprise	0.05	-1.0	1000.0	0.9804947171720192	198.2738722000213	0.9885120000108145
117	179.2615410000144	stim	2		51	surprise	0.05	-1.0	1000.0	0.9804947171720192	199.2623842000321	0.5093774999841116
118	179.77091849999852	stim	0		0	surprise	0.05	-1.0	1000.0	0.9804947171720192	199.7717617000162	0.002285300026414916
118	179.77320380002493	stim	1		100	surprise	0.05	-1.0	1000.0	0.9804947171720192	199.77404700004263	0.9975141999893822
118	180.7707180000143	stim	2		50	surprise	0.05	-1.0	1000.0	0.9804947171720192	200.771561200032	0.49985449999803677
119	181.27057250001235	stim	0		0	surprise	0.05	-1.0	1000.0	0.9804947171720192	201.27141570003005	0.002576800005044788
119	181.2731493000174	stim	1		99	surprise	0.05	-1.0	1000.0	0.9804947171720192	201.2739925000351	0.9889687999966554
119	182.26211810001405	stim	2		50	surprise	0.05	-1.0	1000.0	0.9804947171720192	202.26296130003175	0.4992985999851953
120	182.76141669999924	stim	0		0	surprise	0.05	1.0	2000.0	1.0	202.76225990001694	0.002574800018919632
120	182.76399150001816	stim	1		100	surprise	0.05	1.0	2000.0	1.0	202.76483470003586	0.998045699991053
120	183.76203720000922	stim	2		50	surprise	0.05	1.0	2000.0	1.0	203.76288040002692	0.5000610999995843
121	184.2620983000088	stim	0		0	surprise	0.05	1.0	2000.0	1.0	204.2629415000265	0.0024044000019785017
121	184.26450270001078	stim	1		100	surprise	0.05	1.0	2000.0	1.0	204.26534590002848	0.9969705000112299
121	185.261473200022	stim	2		50	surprise	0.05	1.0	2000.0	1.0	205.2623164000397	0.49986559999524616
122	185.76133880001726	stim	0		0	surprise	0.05	1.0	2000.0	1.0	205.76218200003495	0.002043699991190806
122	185.76338250000845	stim	1		100	surprise	0.05	1.0	2000.0	1.0	205.76422570002615	0.9977216999977827
122	186.76110420000623	stim	2		50	surprise	0.05	1.0	2000.0	1.0	206.76194740002393	0.5003348000172991
123	187.26143900002353	stim	0		0	surprise	0.05	1.0	2000.0	1.0	207.26228220004123	0.0023324999783653766
123	187.2637715000019	stim	1		100	surprise	0.05	1.0	2000.0	1.0	207.2646147000196	0.9973392999963835
123	188.26111079999828	stim	2		50	surprise	0.05	1.0	2000.0	1.0	208.26195400001598	0.5000376000243705
124	188.76114840002265	stim	0		0	surprise	0.05	1.0	2000.0	1.0	208.76199160004035	0.0022515000018756837
124	188.76339990002452	stim	1		100	surprise	0.05	1.0	2000.0	1.0	208.76424310004222	0.9987125999759883
124	189.7621125000005	stim	2		50	surprise	0.05	1.0	2000.0	1.0	209.7629557000182	0.49851940001826733
125	190.26063190001878	stim	0		0	surprise	0.05	1.0	2000.0	1.0	210.26147510003648	0.00272019999101758
125	190.2633521000098	stim	1		100	surprise	0.05	1.0	2000.0	1.0	210.2641953000275	0.9975517000129912
125	191.2609038000228	stim	2		50	surprise	0.05	1.0	2000.0	1.0	211.2617470000405	0.5018515999836382
126	191.76275540000643	stim	0		0	surprise	0.05	1.0	2000.0	1.0	211.76359860002412	0.0023551000049337745
126	191.76511050001136	stim	1		100	surprise	0.05	1.0	2000.0	1.0	211.76595370002906	0.9966152000124566
126	192.76172570002382	stim	2		50	surprise	0.05	1.0	2000.0	1.0	212.76256890004152	0.5005283999780659
127	193.26225410000188	stim	0		0	surprise	0.05	1.0	2000.0	1.0	213.26309730001958	0.0020972000202164054
127	193.2643513000221	stim	1		100	surprise	0.05	1.0	2000.0	1.0	213.2651945000398	0.9977686999773141
127	194.2621199999994	stim	2		50	surprise	0.05	1.0	2000.0	1.0	214.2629632000171	0.4999690000258852
128	194.7620890000253	stim	0		0	surprise	0.05	1.0	2000.0	1.0	214.762932200043	0.002339699974982068
128	194.76442870000028	stim	1		100	surprise	0.05	1.0	2000.0	1.0	214.76527190001798	0.9974100000108592
128	195.76183870001114	stim	2		50	surprise	0.05	1.0	2000.0	1.0	215.76268190002884	0.5006853000086267
129	196.26252400001977	stim	0		0	surprise	0.05	1.0	2000.0	1.0	216.26336720003746	0.00237800000468269
129	196.26490200002445	stim	1		100	surprise	0.05	1.0	2000.0	1.0	216.26574520004215	0.9973681999836117
129	197.26227020000806	stim	2		50	surprise	0.05	1.0	2000.0	1.0	217.26311340002576	0.5001807000080589
130	197.76245090001612	stim	0		0	surprise	0.05	1.0	2000.0	1.0	217.76329410003382	0.002408500004094094
130	197.7648594000202	stim	1		100	surprise	0.05	1.0	2000.0	1.0	217.7657026000379	0.9974772999994457
130	198.76233670001966	stim	2		50	surprise	0.05	1.0	2000.0	1.0	218.76317990003736	0.49979119998170063
131	199.26212790000136	stim	0		0	surprise	0.05	1.0	2000.0	1.0	219.26297110001906	0.002417700015939772
131	199.2645456000173	stim	1		100	surprise	0.05	1.0	2000.0	1.0	219.265388800035	0.9984280999924522
131	200.26297370000975	stim	2		50	surprise	0.05	1.0	2000.0	1.0	220.26381690002745	0.4991961999912746
132	200.76216990000103	stim	0		0	surprise	0.05	1.0	2000.0	1.0	220.76301310001872	0.002470600011292845
132	200.76464050001232	stim	1		100	surprise	0.05	1.0	2000.0	1.0	220.76548370003002	0.9966295000049286
132	201.76127000001725	stim	2		50	surprise	0.05	1.0	2000.0	1.0	221.76211320003495	0.49999129999196157
133	202.2612613000092	stim	0		0	surprise	0.05	1.0	2000.0	1.0	222.2621045000269	0.002134100010152906
133	202.26339540001936	stim	1		100	surprise	0.05	1.0	2000.0	1.0	222.26423860003706	0.9978620999900158
133	203.26125750000938	stim	2		50	surprise	0.05	1.0	2000.0	1.0	223.26210070002708	0.5002592999953777
134	203.76151680000476	stim	0		0	surprise	0.05	1.0	1000.0	0.9804947171720192	223.76236000002245	0.0024956999986898154
134	203.76401250000345	stim	1		100	surprise	0.05	1.0	1000.0	0.9804947171720192	223.76485570002114	0.9979521000059322
134	204.76196460000938	stim	2		50	surprise	0.05	1.0	1000.0	0.9804947171720192	224.76280780002708	0.49986740000895225
135	205.26183200001833	stim	0		0	surprise	0.05	1.0	1000.0	0.9804947171720192	225.26267520003603	0.002309400006197393
135	205.26414140002453	stim	1		100	surprise	0.05	1.0	1000.0	0.9804947171720192	225.26498460004223	0.9976450999965891
135	206.26178650002112	stim	2		50	surprise	0.05	1.0	1000.0	0.9804947171720192	226.26262970003881	0.49974810000276193
136	206.76153460002388	stim	0		0	surprise	0.05	1.0	2000.0	1.0	226.76237780004158	0.002358300000196323
136	206.76389290002408	stim	1		100	surprise	0.05	1.0	2000.0	1.0	226.76473610004177	0.9978511999943294
136	207.7617441000184	stim	2		50	surprise	0.05	1.0	2000.0	1.0	227.7625873000361	0.4998539999942295
137	208.26159810001263	stim	0		0	surprise	0.05	1.0	2000.0	1.0	228.26244130003033	0.0023443000100087374
137	208.26394240002264	stim	1		100	surprise	0.05	1.0	2000.0	1.0	228.26478560004034	0.998465299984673
137	209.26240770000732	stim	2		50	surprise	0.05	1.0	2000.0	1.0	229.263250900025	0.49989629999618046
138	209.7623040000035	stim	0		0	surprise	0.05	1.0	2000.0	1.0	229.7631472000212	0.0025218999944627285
138	209.76482589999796	stim	1		100	surprise	0.05	1.0	2000.0	1.0	229.76566910001566	0.9974484000122175
138	210.76227430001018	stim	2		50	surprise	0.05	1.0	2000.0	1.0	230.76311750002787	0.5002390000154264
139	211.2625133000256	stim	0		0	surprise	0.05	1.0	2000.0	1.0	231.2633565000433	0.002664299972821027
139	211.26517759999842	stim	1		100	surprise	0.05	1.0	2000.0	1.0	231.26602080001612	0.9971694000123534
139	212.26234700001078	stim	2		50	surprise	0.05	1.0	2000.0	1.0	232.26319020002848	0.49996839999221265
140	212.762315400003	stim	0		0	surprise	0.05	1.0	2000.0	1.0	232.7631586000207	0.002202000003308058
140	212.7645174000063	stim	1		100	surprise	0.05	1.0	2000.0	1.0	232.765360600024	0.9979981000069529
140	213.76251550001325	stim	2		50	surprise	0.05	1.0	2000.0	1.0	233.76335870003095	0.49982629998703487
141	214.26234180000029	stim	0		0	surprise	0.05	1.0	2000.0	1.0	234.26318500001798	0.0023600000131409615
141	214.26470180001343	stim	1		100	surprise	0.05	1.0	2000.0	1.0	234.26554500003112	0.9977387000108138
141	215.26244050002424	stim	2		50	surprise	0.05	1.0	2000.0	1.0	235.26328370004194	0.4997725999855902
142	215.76221310000983	stim	0		0	surprise	0.05	1.0	2000.0	1.0	235.76305630002753	0.0023554000072181225
142	215.76456850001705	stim	1		100	surprise	0.05	1.0	2000.0	1.0	235.76541170003475	0.9985443000041414
142	216.7631128000212	stim	2		50	surprise	0.05	1.0	2000.0	1.0	236.7639560000389	0.4996769999852404
143	217.26278980000643	stim	0		0	surprise	0.05	1.0	2000.0	1.0	237.26363300002413	0.002293400000780821
143	217.2650832000072	stim	1		100	surprise	0.05	1.0	2000.0	1.0	237.2659264000249	0.9978333000035491
143	218.26291650001076	stim	2		50	surprise	0.05	1.0	2000.0	1.0	238.26375970002846	0.49894710001535714
144	218.76186360002612	stim	0		0	surprise	0.05	1.0	2000.0	1.0	238.76270680004382	0.0022857999720145017
144	218.76414939999813	stim	1		100	surprise	0.05	1.0	2000.0	1.0	238.76499260001583	0.9979318000259809
144	219.7620812000241	stim	2		50	surprise	0.05	1.0	2000.0	1.0	239.7629244000418	0.5000778999819886
145	220.2621591000061	stim	0		0	surprise	0.05	1.0	1000.0	0.9804947171720192	240.2630023000238	0.00206679999246262
145	220.26422589999856	stim	1		100	surprise	0.05	1.0	1000.0	0.9804947171720192	240.26506910001626	0.9978153000120074
145	221.26204120001057	stim	2		50	surprise	0.05	1.0	1000.0	0.9804947171720192	241.26288440002827	0.5002631999959704
146	221.76230440000654	stim	0		0	surprise	0.05	1.0	2000.0	1.0	241.76314760002424	0.002564499998698011
146	221.76486890000524	stim	1		100	surprise	0.05	1.0	2000.0	1.0	241.76571210002294	0.9973020000034012
146	222.76217090000864	stim	2		50	surprise	0.05	1.0	2000.0	1.0	242.76301410002634	0.49983570000040345
147	223.26200660000904	stim	0		0	surprise	0.05	-1.0	2000.0	1.0	243.26284980002674	0.002209400001447648
147	223.2642160000105	stim	1		100	surprise	0.05	-1.0	2000.0	1.0	243.2650592000282	0.9976129000133369
147	224.26182890002383	stim	2		50	surprise	0.05	-1.0	2000.0	1.0	244.26267210004153	0.4996932999929413
148	224.76152220001677	stim	0		0	surprise	0.05	-1.0	1000.0	0.9804947171720192	244.76236540003447	0.0021707999985665083
148	224.76369300001534	stim	1		100	surprise	0.05	-1.0	1000.0	0.9804947171720192	244.76453620003304	0.9990798000071663
148	225.7627728000225	stim	2		50	surprise	0.05	-1.0	1000.0	0.9804947171720192	245.7636160000402	0.4998415999871213
149	226.26261440000962	stim	0		0	surprise	0.05	-1.0	1000.0	0.9804947171720192	246.26345760002732	0.0022080999915488064
149	226.26482250000117	stim	1		100	surprise	0.05	-1.0	1000.0	0.9804947171720192	246.26566570001887	0.9977559000253677
149	227.26257840002654	stim	2		50	surprise	0.05	-1.0	1000.0	0.9804947171720192	247.26342160004424	0.5001398999884259
150	227.76271830001497	stim	0		0	surprise	0.05	-1.0	1000.0	0.9804947171720192	247.76356150003267	0.0021899999992456287
150	227.7649083000142	stim	1		100	surprise	0.05	-1.0	1000.0	0.9804947171720192	247.7657515000319	0.9979390999942552
150	228.76284740000847	stim	2		50	surprise	0.05	-1.0	1000.0	0.9804947171720192	248.76369060002617	0.5000838999985717
151	229.26293130000704	stim	0		0	surprise	0.05	-1.0	1000.0	0.9804947171720192	249.26377450002474	0.0025175999908242375
151	229.26544889999786	stim	1		100	surprise	0.05	-1.0	1000.0	0.9804947171720192	249.26629210001556	0.998248500021873
151	230.26369740001974	stim	2		50	surprise	0.05	-1.0	1000.0	0.9804947171720192	250.26454060003744	0.49940780000179075
152	230.76310520002153	stim	0		0	surprise	0.05	-1.0	2000.0	1.0	250.76394840003923	0.002339300001040101
152	230.76544450002257	stim	1		100	surprise	0.05	-1.0	2000.0	1.0	250.76628770004027	0.9976559999922756
152	231.76310050001484	stim	2		50	surprise	0.05	-1.0	2000.0	1.0	251.76394370003254	0.49992289999499917
153	232.26302340000984	stim	0		0	surprise	0.05	-1.0	1000.0	0.9804947171720192	252.26386660002754	0.0025415999989490956
153	232.2655650000088	stim	1		100	surprise	0.05	-1.0	1000.0	0.9804947171720192	252.2664082000265	0.9976069999975152
153	233.2631720000063	stim	2		50	surprise	0.05	-1.0	1000.0	0.9804947171720192	253.264015200024	0.4998580999963451
154	233.76303010000265	stim	0		0	surprise	0.05	-1.0	1000.0	0.9804947171720192	253.76387330002035	0.00229210001998581
154	233.76532220002264	stim	1		100	surprise	0.05	-1.0	1000.0	0.9804947171720192	253.76616540004034	0.9977427999838255
154	234.76306500000646	stim	2		50	surprise	0.05	-1.0	1000.0	0.9804947171720192	254.76390820002416	0.49911190001876093
155	235.26217690002522	stim	0		0	surprise	0.05	-1.0	1000.0	0.9804947171720192	255.26302010004292	0.002206199977081269
155	235.2643831000023	stim	1		100	surprise	0.05	-1.0	1000.0	0.9804947171720192	255.26522630002	0.9977281000174116
155	236.26211120001972	stim	2		50	surprise	0.05	-1.0	1000.0	0.9804947171720192	256.2629544000374	0.4999550999782514
156	236.76206629999797	stim	0		0	surprise	0.05	-1.0	1000.0	0.9804947171720192	256.76290950001567	0.0023509000020567328
156	236.76441720000003	stim	1		100	surprise	0.05	-1.0	1000.0	0.9804947171720192	256.7652604000177	0.9977252000244334
156	237.76214240002446	stim	2		50	surprise	0.05	-1.0	1000.0	0.9804947171720192	257.76298560004216	0.49969830000190996
157	238.26184070002637	stim	0		0	surprise	0.05	-1.0	1000.0	0.9804947171720192	258.26268390004407	0.0023877999919932336
157	238.26422850001836	stim	1		100	surprise	0.05	-1.0	1000.0	0.9804947171720192	258.26507170003606	0.9977237999846693
157	239.26195230000303	stim	2		50	surprise	0.05	-1.0	1000.0	0.9804947171720192	259.26279550002073	0.5004541999951471
158	239.76240649999818	stim	0		0	surprise	0.05	-1.0	1000.0	0.9804947171720192	259.7632497000159	0.0027423000137787312
158	239.76514880001196	stim	1		100	surprise	0.05	-1.0	1000.0	0.9804947171720192	259.76599200002966	0.9974233999964781
158	240.76257220000844	stim	2		50	surprise	0.05	-1.0	1000.0	0.9804947171720192	260.76341540002613	0.4993347999989055
159	241.26190700000734	stim	0		0	surprise	0.05	-1.0	1000.0	0.9804947171720192	261.26275020002504	0.002217800007201731
159	241.26412480001454	stim	1		100	surprise	0.05	-1.0	1000.0	0.9804947171720192	261.26496800003224	0.998826499999268
159	242.2629513000138	stim	2		50	surprise	0.05	-1.0	1000.0	0.9804947171720192	262.2637945000315	0.5002079000114463
160	242.76315920002526	stim	0		0	surprise	0.05	-1.0	1000.0	0.9804947171720192	262.76400240004295	0.002437499992083758
160	242.76559670001734	stim	1		100	surprise	0.05	-1.0	1000.0	0.9804947171720192	262.76643990003504	0.9973354999965522
160	243.7629322000139	stim	2		50	surprise	0.05	-1.0	1000.0	0.9804947171720192	263.7637754000316	0.5003046999918297
161	244.26323690000572	stim	0		0	surprise	0.05	-1.0	1000.0	0.9804947171720192	264.2640801000234	0.002653300005476922
161	244.2658902000112	stim	1		100	surprise	0.05	-1.0	1000.0	0.9804947171720192	264.2667334000289	0.9976565999968443
161	245.26354680000804	stim	2		50	surprise	0.05	-1.0	1000.0	0.9804947171720192	265.26439000002574	0.49942350000492297
162	245.76297030001297	stim	0		0	surprise	0.05	-1.0	2000.0	1.0	265.76381350003066	0.002328800008399412
162	245.76529910002137	stim	1		100	surprise	0.05	-1.0	2000.0	1.0	265.76614230003906	0.997566599980928
162	246.7628657000023	stim	2		50	surprise	0.05	-1.0	2000.0	1.0	266.76370890002	0.5004743000026792
163	247.26334000000497	stim	0		0	surprise	0.05	-1.0	1000.0	0.9804947171720192	267.26418320002267	0.002454300003591925
163	247.26579430000857	stim	1		100	surprise	0.05	-1.0	1000.0	0.9804947171720192	267.26663750002626	0.9974492999899667
163	248.26324359999853	stim	2		50	surprise	0.05	-1.0	1000.0	0.9804947171720192	268.26408680001623	0.5002014000201598
164	248.7634450000187	stim	0		0	surprise	0.05	-1.0	1000.0	0.9804947171720192	268.7642882000364	0.0021265999821480364
164	248.76557160000084	stim	1		100	surprise	0.05	-1.0	1000.0	0.9804947171720192	268.76641480001854	0.9977204000169877
164	249.76329200001783	stim	2		50	surprise	0.05	-1.0	1000.0	0.9804947171720192	269.7641352000355	0.5011005999986082
165	250.26439260001644	stim	0		0	surprise	0.05	-1.0	1000.0	0.9804947171720192	270.26523580003413	0.0025277000095229596
165	250.26692030002596	stim	1		100	surprise	0.05	-1.0	1000.0	0.9804947171720192	270.26776350004366	0.9964504999807104
165	251.26337080000667	stim	2		50	surprise	0.05	-1.0	1000.0	0.9804947171720192	271.26421400002437	0.4995901999936905
166	251.76296100000036	stim	0		0	surprise	0.05	-1.0	1000.0	0.9804947171720192	271.76380420001806	0.0029285000055097044
166	251.76588950000587	stim	1		100	surprise	0.05	-1.0	1000.0	0.9804947171720192	271.76673270002357	0.9969267999986187
166	252.7628163000045	stim	2		50	surprise	0.05	-1.0	1000.0	0.9804947171720192	272.7636595000222	0.49983750001410954
167	253.2626538000186	stim	0		0	surprise	0.05	-1.0	1000.0	0.9804947171720192	273.2634970000363	0.0021348999871406704
167	253.26478870000574	stim	1		100	surprise	0.05	-1.0	1000.0	0.9804947171720192	273.26563190002344	0.9979755000094883
167	254.26276420001523	stim	2		50	surprise	0.05	-1.0	1000.0	0.9804947171720192	274.2636074000329	0.4996683000063058
168	254.76243250002153	stim	0		0	surprise	0.05	1.0	2000.0	1.0	274.76327570003923	0.002437999995891005
168	254.76487050001742	stim	1		100	surprise	0.05	1.0	2000.0	1.0	274.7657137000351	0.9979717999813147
168	255.76284229999874	stim	2		50	surprise	0.05	1.0	2000.0	1.0	275.76368550001644	0.49964860000181943
169	256.26249090000056	stim	0		0	surprise	0.05	1.0	2000.0	1.0	276.26333410001826	0.0024311000015586615
169	256.2649220000021	stim	1		100	surprise	0.05	1.0	2000.0	1.0	276.2657652000198	0.9978539000148885
169	257.262775900017	stim	2		50	surprise	0.05	1.0	2000.0	1.0	277.2636191000347	0.49986129999160767
170	257.7626372000086	stim	0		0	surprise	0.05	1.0	2000.0	1.0	277.7634804000263	0.002388799999607727
170	257.7650260000082	stim	1		100	surprise	0.05	1.0	2000.0	1.0	277.7658692000259	0.9986035999900196
170	258.76362959999824	stim	2		50	surprise	0.05	1.0	2000.0	1.0	278.76447280001594	0.49988800002029166
171	259.26351760001853	stim	0		0	surprise	0.05	1.0	2000.0	1.0	279.26436080003623	0.0023443999816663563
171	259.2658620000002	stim	1		100	surprise	0.05	1.0	2000.0	1.0	279.2667052000179	0.9978719000064302
171	260.2637339000066	stim	2		50	surprise	0.05	1.0	2000.0	1.0	280.2645771000243	0.49973120001959614
172	260.7634651000262	stim	0		0	surprise	0.05	1.0	2000.0	1.0	280.7643083000439	0.0023432999732904136
172	260.7658083999995	stim	1		100	surprise	0.05	1.0	2000.0	1.0	280.7666516000172	0.9974250000086613
172	261.7632334000082	stim	2		50	surprise	0.05	1.0	2000.0	1.0	281.7640766000259	0.5000054000120144
173	262.2632388000202	stim	0		0	surprise	0.05	1.0	2000.0	1.0	282.2640820000379	0.0024049000057857484
173	262.265643700026	stim	1		100	surprise	0.05	1.0	2000.0	1.0	282.2664869000437	0.9981136999849696
173	263.26375740001095	stim	2		50	surprise	0.05	1.0	2000.0	1.0	283.26460060002864	0.49979579998762347
174	263.76355319999857	stim	0		0	surprise	0.05	1.0	2000.0	1.0	283.76439640001627	0.0022000000171829015
174	263.76575320001575	stim	1		100	surprise	0.05	1.0	2000.0	1.0	283.76659640003345	0.9981525999901351
174	264.7639058000059	stim	2		50	surprise	0.05	1.0	2000.0	1.0	284.7647490000236	0.49947660000179894
175	265.2633824000077	stim	0		0	surprise	0.05	1.0	2000.0	1.0	285.2642256000254	0.0021641000057570636
175	265.26554650001344	stim	1		100	surprise	0.05	1.0	2000.0	1.0	285.26638970003114	0.9984366999997292
175	266.2639832000132	stim	2		50	surprise	0.05	1.0	2000.0	1.0	286.26482640003087	0.49996429999009706
176	266.76394750000327	stim	0		0	surprise	0.05	1.0	2000.0	1.0	286.76479070002097	0.002183300006436184
176	266.7661308000097	stim	1		100	surprise	0.05	1.0	2000.0	1.0	286.7669740000274	0.997825800004648
176	267.76395660001435	stim	2		50	surprise	0.05	1.0	2000.0	1.0	287.76479980003205	0.4998693999950774
177	268.26382600000943	stim	0		0	surprise	0.05	1.0	2000.0	1.0	288.26466920002713	0.002594599995063618
177	268.2664206000045	stim	1		100	surprise	0.05	1.0	2000.0	1.0	288.2672638000222	0.9966898999991827
177	269.2631105000037	stim	2		50	surprise	0.05	1.0	2000.0	1.0	289.2639537000214	0.49973700000555255
178	269.76284750000923	stim	0		0	surprise	0.05	1.0	2000.0	1.0	289.7636907000269	0.0022222000116016716
178	269.76506970002083	stim	1		100	surprise	0.05	1.0	2000.0	1.0	289.76591290003853	0.9978254000016022
178	270.76289510002243	stim	2		50	surprise	0.05	1.0	2000.0	1.0	290.76373830004013	0.4998722999880556
179	271.2627674000105	stim	0		0	surprise	0.05	1.0	2000.0	1.0	291.2636106000282	0.002750699990428984
179	271.2655181000009	stim	1		100	surprise	0.05	1.0	2000.0	1.0	291.2663613000186	0.997495700023137
179	272.26301380002405	stim	2		50	surprise	0.05	1.0	2000.0	1.0	292.26385700004175	0.4999070999911055
180	272.76292090001516	stim	0		0	surprise	0.05	1.0	2000.0	1.0	292.76376410003286	0.002155900001525879
180	272.7650768000167	stim	1		100	surprise	0.05	1.0	2000.0	1.0	292.7659200000344	0.997700599982636
180	273.7627773999993	stim	2		50	surprise	0.05	1.0	2000.0	1.0	293.763620600017	0.49981050001224503
181	274.26258790001157	stim	0		0	surprise	0.05	1.0	2000.0	1.0	294.26343110002927	0.002182099997298792
181	274.26477000000887	stim	1		100	surprise	0.05	1.0	2000.0	1.0	294.26561320002656	0.9992223000153899
181	275.26399230002426	stim	2		50	surprise	0.05	1.0	2000.0	1.0	295.26483550004195	0.49992619999102317
182	275.7639185000153	stim	0		0	surprise	0.05	1.0	2000.0	1.0	295.764761700033	0.0025809000071603805
182	275.76649940002244	stim	1		100	surprise	0.05	1.0	2000.0	1.0	295.76734260004014	0.9972901000001002
182	276.76378950002254	stim	2		50	surprise	0.05	1.0	2000.0	1.0	296.76463270004024	0.5000183999945875
183	277.2638079000171	stim	0		0	surprise	0.05	1.0	2000.0	1.0	297.2646511000348	0.0022215000062715262
183	277.2660294000234	stim	1		100	surprise	0.05	1.0	2000.0	1.0	297.2668726000411	0.9977055999916047
183	278.263735000015	stim	2		50	surprise	0.05	1.0	2000.0	1.0	298.2645782000327	0.5003754000063054
184	278.7641104000213	stim	0		0	surprise	0.05	1.0	1000.0	0.9804947171720192	298.764953600039	0.002342099993256852
184	278.76645250001457	stim	1		100	surprise	0.05	1.0	1000.0	0.9804947171720192	298.76729570003226	0.9973974000022281
184	279.7638499000168	stim	2		50	surprise	0.05	1.0	1000.0	0.9804947171720192	299.7646931000345	0.5003693999897223
185	280.2642193000065	stim	0		0	surprise	0.05	1.0	2000.0	1.0	300.2650625000242	0.002306000009411946
185	280.2665253000159	stim	1		100	surprise	0.05	1.0	2000.0	1.0	300.2673685000336	0.9976236000075005
185	281.26414890002343	stim	2		50	surprise	0.05	1.0	2000.0	1.0	301.2649921000411	0.5003726999857463
186	281.7645216000092	stim	0		0	surprise	0.05	1.0	2000.0	1.0	301.7653648000269	0.002326999994693324
186	281.76684860000387	stim	1		100	surprise	0.05	1.0	2000.0	1.0	301.76769180002157	0.9973712000064552
186	282.7642198000103	stim	2		50	surprise	0.05	1.0	2000.0	1.0	302.765063000028	0.4998877999896649
187	283.2641076	stim	0		0	surprise	0.05	1.0	2000.0	1.0	303.2649508000177	0.002522900002077222
187	283.26663050000207	stim	1		100	surprise	0.05	1.0	2000.0	1.0	303.26747370001976	0.99803780001821
187	284.2646683000203	stim	2		50	surprise	0.05	1.0	2000.0	1.0	304.265511500038	0.49927679999382235
188	284.7639451000141	stim	0		0	surprise	0.05	1.0	2000.0	1.0	304.7647883000318	0.002379599987762049
188	284.76632470000186	stim	1		100	surprise	0.05	1.0	2000.0	1.0	304.76716790001956	0.9968099000107031
188	285.76313460001256	stim	2		50	surprise	0.05	1.0	2000.0	1.0	305.76397780003026	0.5005515000084415
189	286.263686100021	stim	0		0	surprise	0.05	1.0	2000.0	1.0	306.2645293000387	0.0023877999919932336
189	286.266073900013	stim	1		100	surprise	0.05	1.0	2000.0	1.0	306.2669171000307	0.9978011999919545
189	287.26387510000495	stim	2		50	surprise	0.05	1.0	2000.0	1.0	307.26471830002265	0.49955450001289137
190	287.76342960001784	stim	0		0	surprise	0.05	1.0	2000.0	1.0	307.76427280003554	0.002740099997026846
190	287.76616970001487	stim	1		100	surprise	0.05	1.0	2000.0	1.0	307.76701290003257	0.9974912999896333
190	288.7636610000045	stim	2		50	surprise	0.05	1.0	2000.0	1.0	308.7645042000222	0.4998679000127595
191	289.26352890001726	stim	0		0	surprise	0.05	1.0	2000.0	1.0	309.26437210003496	0.0024947999918367714
191	289.2660237000091	stim	1		100	surprise	0.05	1.0	2000.0	1.0	309.2668669000268	0.9975710000144318
191	290.26359470002353	stim	2		50	surprise	0.05	1.0	2000.0	1.0	310.26443790004123	0.4994748999888543
192	290.7630696000124	stim	0		0	surprise	0.05	1.0	2000.0	1.0	310.7639128000301	0.0022923999931663275
192	290.76536200000555	stim	1		100	surprise	0.05	1.0	2000.0	1.0	310.76620520002325	0.9981316000048537
192	291.7634936000104	stim	2		50	surprise	0.05	1.0	2000.0	1.0	311.7643368000281	0.5006377999961842
193	292.2641314000066	stim	0		0	surprise	0.05	1.0	2000.0	1.0	312.2649746000243	0.0021911000076215714
193	292.2663225000142	stim	1		100	surprise	0.05	1.0	2000.0	1.0	312.2671657000319	0.9976571000006516
193	293.26397960001486	stim	2		50	surprise	0.05	1.0	2000.0	1.0	313.26482280003256	0.5000867999915499
194	293.7640664000064	stim	0		0	surprise	0.05	1.0	2000.0	1.0	313.7649096000241	0.0024502000014763325
194	293.7665166000079	stim	1		100	surprise	0.05	1.0	2000.0	1.0	313.7673598000256	0.9978246999962721
194	294.76434130000416	stim	2		50	surprise	0.05	1.0	2000.0	1.0	314.76518450002186	0.49972920000436716
195	295.26407050000853	stim	0		0	surprise	0.05	1.0	2000.0	1.0	315.2649137000262	0.0023278000007849187
195	295.2663983000093	stim	1		100	surprise	0.05	1.0	2000.0	1.0	315.267241500027	0.9976747999899089
195	296.2640730999992	stim	2		50	surprise	0.05	1.0	2000.0	1.0	316.2649163000169	0.5001228000037372
196	296.76419590000296	stim	0		0	surprise	0.05	1.0	2000.0	1.0	316.76503910002066	0.0027015999949071556
196	296.76689749999787	stim	1		100	surprise	0.05	1.0	2000.0	1.0	316.76774070001557	0.9974246000056155
196	297.7643221000035	stim	2		50	surprise	0.05	1.0	2000.0	1.0	317.7651653000212	0.5006080000021029
197	298.2649301000056	stim	0		0	surprise	0.05	1.0	2000.0	1.0	318.2657733000233	0.002182099997298792
197	298.2671122000029	stim	1		100	surprise	0.05	1.0	2000.0	1.0	318.2679554000206	0.9971391000144649
197	299.26425130001735	stim	2		50	surprise	0.05	1.0	2000.0	1.0	319.26509450003505	0.5004448999825399
198	299.7646961999999	stim	0		0	surprise	0.05	1.0	2000.0	1.0	319.7655394000176	0.002312100026756525
198	299.76700830002665	stim	1		100	surprise	0.05	1.0	2000.0	1.0	319.76785150004434	0.9978875999804586
198	300.7648959000071	stim	2		50	surprise	0.05	1.0	2000.0	1.0	320.7657391000248	0.4999864000128582
199	301.26488230001996	stim	0		0	surprise	0.05	1.0	2000.0	1.0	321.26572550003766	0.0022286000021267682
199	301.2671109000221	stim	1		100	surprise	0.05	1.0	2000.0	1.0	321.2679541000398	0.9966952999820933
199	302.2638062000042	stim	2		50	surprise	0.05	1.0	2000.0	1.0	322.2646494000219	0.49989790000836365
200	302.76370410001255	stim	0		0	surprise	0.05	-1.0	2000.0	1.0	322.76454730003024	0.0024470000062137842
200	302.76615110001876	stim	1		100	surprise	0.05	-1.0	2000.0	1.0	322.76699430003646	0.9976580000075046
200	303.76380910002626	stim	2		50	surprise	0.05	-1.0	2000.0	1.0	323.76465230004396	0.49992929998552427
201	304.2637384000118	stim	0		0	surprise	0.05	-1.0	1000.0	0.9804947171720192	324.2645816000295	0.0024608999956399202
201	304.26619930000743	stim	1		100	surprise	0.05	-1.0	1000.0	0.9804947171720192	324.2670425000251	0.997628800017992
201	305.2638281000254	stim	2		50	surprise	0.05	-1.0	1000.0	0.9804947171720192	325.2646713000431	0.49938949997886084
202	305.7632176000043	stim	0		0	surprise	0.05	-1.0	1000.0	0.9804947171720192	325.764060800022	0.002650200010975823
202	305.76586780001526	stim	1		100	surprise	0.05	-1.0	1000.0	0.9804947171720192	325.76671100003296	0.9978889999911189
202	306.7637568000064	stim	2		50	surprise	0.05	-1.0	1000.0	0.9804947171720192	326.7646000000241	0.49997080001048744
203	307.26372760001686	stim	0		0	surprise	0.05	-1.0	1000.0	0.9804947171720192	327.26457080003456	0.0024190999974962324
203	307.26614670001436	stim	1		100	surprise	0.05	-1.0	1000.0	0.9804947171720192	327.26698990003206	0.997427800000878
203	308.26357450001524	stim	2		50	surprise	0.05	-1.0	1000.0	0.9804947171720192	328.26441770003294	0.5007687000033911
204	308.76434320001863	stim	0		0	surprise	0.05	-1.0	1000.0	0.9804947171720192	328.7651864000363	0.002359699981752783
204	308.7667029000004	stim	1		100	surprise	0.05	-1.0	1000.0	0.9804947171720192	328.7675461000181	0.9982454999990296
204	309.7649483999994	stim	2		50	surprise	0.05	-1.0	1000.0	0.9804947171720192	329.7657916000171	0.4995078000065405
205	310.26445620000595	stim	0		0	surprise	0.05	-1.0	1000.0	0.9804947171720192	330.26529940002365	0.0023184000165201724
205	310.2667746000225	stim	1		100	surprise	0.05	-1.0	1000.0	0.9804947171720192	330.26761780004017	0.997659599990584
205	311.26443420001306	stim	2		50	surprise	0.05	-1.0	1000.0	0.9804947171720192	331.26527740003075	0.5001272000081372
206	311.7645614000212	stim	0		0	surprise	0.05	-1.0	1000.0	0.9804947171720192	331.7654046000389	0.0029685999907087535
206	311.7675300000119	stim	1		100	surprise	0.05	-1.0	1000.0	0.9804947171720192	331.7683732000296	0.9970563999959268
206	312.76458640000783	stim	2		50	surprise	0.05	-1.0	1000.0	0.9804947171720192	332.7654296000255	0.5000368000182789
207	313.2646232000261	stim	0		0	surprise	0.05	-1.0	1000.0	0.9804947171720192	333.2654664000438	0.002343999978620559
207	313.26696720000473	stim	1		100	surprise	0.05	-1.0	1000.0	0.9804947171720192	333.2678104000224	0.9979734999942593
207	314.264940699999	stim	2		50	surprise	0.05	-1.0	1000.0	0.9804947171720192	334.2657839000167	0.5001427000097465
208	314.76508340000873	stim	0		0	surprise	0.05	-1.0	1000.0	0.9804947171720192	334.76592660002643	0.0022487000096589327
208	314.7673321000184	stim	1		100	surprise	0.05	-1.0	1000.0	0.9804947171720192	334.7681753000361	0.997725499997614
208	315.765057600016	stim	2		50	surprise	0.05	-1.0	1000.0	0.9804947171720192	335.7659008000337	0.5004358000005595
209	316.26549340001657	stim	0		0	surprise	0.05	-1.0	1000.0	0.9804947171720192	336.26633660003426	0.002560499997343868
209	316.2680539000139	stim	1		100	surprise	0.05	-1.0	1000.0	0.9804947171720192	336.2688971000316	0.9968366000102833
209	317.2648905000242	stim	2		50	surprise	0.05	-1.0	1000.0	0.9804947171720192	337.2657337000419	0.5001018999901135
210	317.7649924000143	stim	0		0	surprise	0.05	-1.0	1000.0	0.9804947171720192	337.765835600032	0.0022072999854572117
210	317.76719969999976	stim	1		100	surprise	0.05	-1.0	1000.0	0.9804947171720192	337.76804290001746	0.9970545000105631
210	318.7642542000103	stim	2		50	surprise	0.05	-1.0	1000.0	0.9804947171720192	338.765097400028	0.4997571000130847
211	319.2640113000234	stim	0		0	surprise	0.05	-1.0	1000.0	0.9804947171720192	339.2648545000411	0.0024099999864120036
211	319.2664213000098	stim	1		100	surprise	0.05	-1.0	1000.0	0.9804947171720192	339.2672645000275	0.9973891999979969
211	320.2638105000078	stim	2		50	surprise	0.05	-1.0	1000.0	0.9804947171720192	340.2646537000255	0.5001454000012018
212	320.763955900009	stim	0		0	surprise	0.05	-1.0	1000.0	0.9804947171720192	340.7647991000267	0.0023330000112764537
212	320.7662889000203	stim	1		100	surprise	0.05	-1.0	1000.0	0.9804947171720192	340.767132100038	0.9976322999864351
212	321.76392120000673	stim	2		50	surprise	0.05	-1.0	1000.0	0.9804947171720192	341.76476440002443	0.4995296999986749
213	322.2634509000054	stim	0		0	surprise	0.05	-1.0	1000.0	0.9804947171720192	342.2642941000231	0.0022948000114411116
213	322.26574570001685	stim	1		100	surprise	0.05	-1.0	1000.0	0.9804947171720192	342.26658890003455	0.998745399992913
213	323.26449110000976	stim	2		50	surprise	0.05	-1.0	1000.0	0.9804947171720192	343.26533430002746	0.4998142000113148
214	323.7643053000211	stim	0		0	surprise	0.05	1.0	1000.0	0.9804947171720192	343.7651485000388	0.0024504000029992312
214	323.7667557000241	stim	1		100	surprise	0.05	1.0	1000.0	0.9804947171720192	343.7675989000418	0.9979793999809772
214	324.76473510000505	stim	2		50	surprise	0.05	1.0	1000.0	0.9804947171720192	344.76557830002275	0.499526200001128
215	325.2642613000062	stim	0		0	surprise	0.05	-1.0	1000.0	0.9804947171720192	345.2651045000239	0.0025944999943021685
215	325.2668558000005	stim	1		100	surprise	0.05	-1.0	1000.0	0.9804947171720192	345.2676990000182	0.9979555000027176
215	326.2648113000032	stim	2		50	surprise	0.05	-1.0	1000.0	0.9804947171720192	346.2656545000209	0.5000080000027083
216	326.7648193000059	stim	0		0	surprise	0.05	-1.0	1000.0	0.9804947171720192	346.7656625000236	0.0029174000083003193
216	326.7677367000142	stim	1		100	surprise	0.05	-1.0	1000.0	0.9804947171720192	346.7685799000319	0.9971936999936588
216	327.76493040000787	stim	2		50	surprise	0.05	-1.0	1000.0	0.9804947171720192	347.76577360002557	0.5002641000028234
217	328.2651945000107	stim	0		0	surprise	0.05	-1.0	2000.0	1.0	348.2660377000284	0.002354099997319281
217	328.267548600008	stim	1		100	surprise	0.05	-1.0	2000.0	1.0	348.2683918000257	0.9978905000025406
217	329.26543910001055	stim	2		50	surprise	0.05	-1.0	2000.0	1.0	349.26628230002825	0.49963279999792576
218	329.7650719000085	stim	0		0	surprise	0.05	-1.0	1000.0	0.9804947171720192	349.7659151000262	0.0022843999904580414
218	329.76735629999894	stim	1		100	surprise	0.05	-1.0	1000.0	0.9804947171720192	349.76819950001664	0.9978788000007626
218	330.7652350999997	stim	2		50	surprise	0.05	-1.0	1000.0	0.9804947171720192	350.7660783000174	0.4999705000082031
219	331.2652056000079	stim	0		0	surprise	0.05	-1.0	1000.0	0.9804947171720192	351.2660488000256	0.0022259000106714666
219	331.2674315000186	stim	1		100	surprise	0.05	-1.0	1000.0	0.9804947171720192	351.2682747000363	0.9976961000065785
219	332.26512760002515	stim	2		50	surprise	0.05	-1.0	1000.0	0.9804947171720192	352.26597080004285	0.49997459998121485
220	332.76510220000637	stim	0		0	surprise	0.05	-1.0	1000.0	0.9804947171720192	352.76594540002407	0.0025024999922607094
220	332.7676046999986	stim	1		100	surprise	0.05	-1.0	1000.0	0.9804947171720192	352.7684479000163	0.9982690000033472
220	333.765873700002	stim	2		50	surprise	0.05	-1.0	1000.0	0.9804947171720192	353.7667169000197	0.4991804000164848
221	334.26505410001846	stim	0		0	surprise	0.05	-1.0	1000.0	0.9804947171720192	354.26589730003616	0.0024307999992743134
221	334.26748490001773	stim	1		100	surprise	0.05	-1.0	1000.0	0.9804947171720192	354.26832810003543	0.9981344999978319
221	335.26561940001557	stim	2		50	surprise	0.05	-1.0	1000.0	0.9804947171720192	355.26646260003326	0.4989585999865085
222	335.7645780000021	stim	0		0	surprise	0.05	-1.0	1000.0	0.9804947171720192	355.7654212000198	0.002501600014511496
222	335.7670796000166	stim	1		100	surprise	0.05	-1.0	1000.0	0.9804947171720192	355.7679228000343	0.9977321999904234
222	336.764811800007	stim	2		50	surprise	0.05	-1.0	1000.0	0.9804947171720192	356.7656550000247	0.4996211999969091
223	337.2644330000039	stim	0		0	surprise	0.05	-1.0	1000.0	0.9804947171720192	357.2652762000216	0.0022253000061027706
223	337.26665830001	stim	1		100	surprise	0.05	-1.0	1000.0	0.9804947171720192	357.2675015000277	0.9980290000094101
223	338.26468730001943	stim	2		50	surprise	0.05	-1.0	1000.0	0.9804947171720192	358.26553050003713	0.4997913999832235
224	338.76447870000266	stim	0		0	surprise	0.05	-1.0	1000.0	0.9804947171720192	358.76532190002035	0.0022157000203151256
224	338.76669440002297	stim	1		100	surprise	0.05	-1.0	1000.0	0.9804947171720192	358.76753760004067	0.9978469999914523
224	339.7645414000144	stim	2		50	surprise	0.05	-1.0	1000.0	0.9804947171720192	359.7653846000321	0.5001921000075527
225	340.264733500022	stim	0		0	surprise	0.05	-1.0	1000.0	0.9804947171720192	360.2655767000397	0.002277799998410046
225	340.2670113000204	stim	1		100	surprise	0.05	-1.0	1000.0	0.9804947171720192	360.2678545000381	0.9974896000057925
225	341.2645009000262	stim	2		50	surprise	0.05	-1.0	1000.0	0.9804947171720192	361.2653441000439	0.4995391999837011
226	341.7640401000099	stim	0		0	surprise	0.05	-1.0	1000.0	0.9804947171720192	361.7648833000276	0.002329700015252456
226	341.76636980002513	stim	1		100	surprise	0.05	-1.0	1000.0	0.9804947171720192	361.76721300004283	0.9989904999965802
226	342.7653603000217	stim	2		50	surprise	0.05	-1.0	1000.0	0.9804947171720192	362.7662035000394	0.49976649999734946
227	343.26512680001906	stim	0		0	surprise	0.05	-1.0	1000.0	0.9804947171720192	363.26597000003676	0.002274900005431846
227	343.2674017000245	stim	1		100	surprise	0.05	-1.0	1000.0	0.9804947171720192	363.2682449000422	0.9979481999762356
227	344.26534990000073	stim	2		50	surprise	0.05	-1.0	1000.0	0.9804947171720192	364.2661931000184	0.5002851000172086
228	344.76563500001794	stim	0		0	surprise	0.05	-1.0	1000.0	0.9804947171720192	364.76647820003564	0.0024114999978337437
228	344.76804650001577	stim	1		100	surprise	0.05	-1.0	1000.0	0.9804947171720192	364.76888970003347	0.9970891999837477
228	345.7651356999995	stim	2		50	surprise	0.05	-1.0	1000.0	0.9804947171720192	365.7659789000172	0.5006059000152163
229	346.26574160001474	stim	0		0	surprise	0.05	-1.0	1000.0	0.9804947171720192	366.26658480003243	0.0026222000014968216
229	346.26836380001623	stim	1		100	surprise	0.05	-1.0	1000.0	0.9804947171720192	366.26920700003393	0.9973957999900449
229	347.2657596000063	stim	2		50	surprise	0.05	-1.0	1000.0	0.9804947171720192	367.266602800024	0.4999926000018604
230	347.76575220000814	stim	0		0	surprise	0.05	1.0	2000.0	1.0	367.76659540002584	0.002562000008765608
230	347.7683142000169	stim	1		100	surprise	0.05	1.0	2000.0	1.0	367.7691574000346	0.9975503000023309
230	348.76586450001923	stim	2		50	surprise	0.05	1.0	2000.0	1.0	368.76670770003693	0.49986209999769926
231	349.26572660001693	stim	0		0	surprise	0.05	1.0	2000.0	1.0	369.26656980003463	0.0020957000087946653
231	349.2678223000257	stim	1		100	surprise	0.05	1.0	2000.0	1.0	369.2686655000434	0.9979176999768242
231	350.26574000000255	stim	2		50	surprise	0.05	1.0	2000.0	1.0	370.26658320002025	0.4996898999961559
232	350.7654298999987	stim	0		0	surprise	0.05	1.0	2000.0	1.0	370.7662731000164	0.0023551000049337745
232	350.76778500000364	stim	1		100	surprise	0.05	1.0	2000.0	1.0	370.76862820002134	0.9981192999985069
232	351.76590430000215	stim	2		50	surprise	0.05	1.0	2000.0	1.0	371.76674750001985	0.49828930001240224
233	352.26419360001455	stim	0		0	surprise	0.05	1.0	2000.0	1.0	372.26503680003225	0.00215869999374263
233	352.2663523000083	stim	1		100	surprise	0.05	1.0	2000.0	1.0	372.267195500026	0.9984657000168227
233	353.2648180000251	stim	2		50	surprise	0.05	1.0	2000.0	1.0	373.2656612000428	0.49986049998551607
234	353.76467850001063	stim	0		0	surprise	0.05	1.0	2000.0	1.0	373.76552170002833	0.002841600013198331
234	353.76752010002383	stim	1		100	surprise	0.05	1.0	2000.0	1.0	373.7683633000415	0.9972770999884233
234	354.76479720001225	stim	2		50	surprise	0.05	1.0	2000.0	1.0	374.76564040002995	0.5005717999883927
235	355.26536900000065	stim	0		0	surprise	0.05	1.0	2000.0	1.0	375.26621220001834	0.002207500016083941
235	355.26757650001673	stim	1		100	surprise	0.05	1.0	2000.0	1.0	375.2684197000344	0.9970245999866165
235	356.26460110000335	stim	2		50	surprise	0.05	1.0	2000.0	1.0	376.26544430002104	0.5007108999998309
236	356.7653120000032	stim	0		0	surprise	0.05	1.0	2000.0	1.0	376.7661552000209	0.002388499997323379
236	356.7677005000005	stim	1		100	surprise	0.05	1.0	2000.0	1.0	376.7685437000182	0.9976928000105545
236	357.76539330001106	stim	2		50	surprise	0.05	1.0	2000.0	1.0	377.76623650002875	0.49930130000575446
237	358.2646946000168	stim	0		0	surprise	0.05	1.0	2000.0	1.0	378.2655378000345	0.002343000000109896
237	358.2670376000169	stim	1		100	surprise	0.05	1.0	2000.0	1.0	378.2678808000346	0.9987057999824174
237	359.26574339999934	stim	2		50	surprise	0.05	1.0	2000.0	1.0	379.26658660001704	0.49980470002628863
238	359.7655481000256	stim	0		0	surprise	0.05	1.0	1000.0	0.9804947171720192	379.7663913000433	0.0024908999912440777
238	359.76803900001687	stim	1		100	surprise	0.05	1.0	1000.0	0.9804947171720192	379.76888220003457	0.9975497999985237
238	360.7655888000154	stim	2		50	surprise	0.05	1.0	1000.0	0.9804947171720192	380.7664320000331	0.5001810000103433
239	361.26576980002574	stim	0		0	surprise	0.05	1.0	2000.0	1.0	381.26661300004344	0.0022634999768342823
239	361.26803330000257	stim	1		100	surprise	0.05	1.0	2000.0	1.0	381.26887650002027	0.9976862000185065
239	362.2657195000211	stim	2		50	surprise	0.05	1.0	2000.0	1.0	382.2665627000388	0.49991210000007413
240	362.76563160002115	stim	0		0	surprise	0.05	1.0	2000.0	1.0	382.76647480003885	0.0025052999844774604
240	362.76813690000563	stim	1		100	surprise	0.05	1.0	2000.0	1.0	382.7689801000233	0.9981690999993589
240	363.766306000005	stim	2		50	surprise	0.05	1.0	2000.0	1.0	383.7671492000227	0.4996467000164557
241	364.26595270002144	stim	0		0	surprise	0.05	1.0	2000.0	1.0	384.26679590003914	0.0024480999854858965
241	364.26840080000693	stim	1		100	surprise	0.05	1.0	2000.0	1.0	384.2692440000246	0.9975069999927655
241	365.2659077999997	stim	2		50	surprise	0.05	1.0	2000.0	1.0	385.2667510000174	0.5001770000089891
242	365.7660848000087	stim	0		0	surprise	0.05	1.0	2000.0	1.0	385.7669280000264	0.0023745000071357936
242	365.7684593000158	stim	1		100	surprise	0.05	1.0	2000.0	1.0	385.7693025000335	0.9973839999875054
242	366.7658433000033	stim	2		50	surprise	0.05	1.0	2000.0	1.0	386.766686500021	0.49965209999936633
243	367.2654954000027	stim	0		0	surprise	0.05	1.0	2000.0	1.0	387.2663386000204	0.0024781000101938844
243	367.2679735000129	stim	1		100	surprise	0.05	1.0	2000.0	1.0	387.2688167000306	0.9979718000104185
243	368.2659453000233	stim	2		50	surprise	0.05	1.0	2000.0	1.0	388.266788500041	0.49967520000063814
244	368.76562050002394	stim	0		0	surprise	0.05	1.0	2000.0	1.0	388.76646370004164	0.0021858999971300364
244	368.7678064000211	stim	1		100	surprise	0.05	1.0	2000.0	1.0	388.76864960003877	0.9980407999828458
244	369.7658472000039	stim	2		50	surprise	0.05	1.0	2000.0	1.0	389.7666904000216	0.499689300020691
245	370.2655365000246	stim	0		0	surprise	0.05	1.0	2000.0	1.0	390.2663797000423	0.0023366999812424183
245	370.26787320000585	stim	1		100	surprise	0.05	1.0	2000.0	1.0	390.26871640002355	0.9976263999997173
245	371.26549960000557	stim	2		50	surprise	0.05	1.0	2000.0	1.0	391.26634280002327	0.49917560000903904
246	371.7646752000146	stim	0		0	surprise	0.05	1.0	1000.0	0.9804947171720192	391.7655184000323	0.0022569999855477363
246	371.76693220000016	stim	1		100	surprise	0.05	1.0	1000.0	0.9804947171720192	391.76777540001785	0.9984522000013385
246	372.7653844000015	stim	2		50	surprise	0.05	1.0	1000.0	0.9804947171720192	392.7662276000192	0.49989970002206974
247	373.26528410002356	stim	0		0	surprise	0.05	1.0	2000.0	1.0	393.26612730004126	0.0026394999877084047
247	373.2679236000113	stim	1		100	surprise	0.05	1.0	2000.0	1.0	393.26876680002897	0.9975090000079945
247	374.26543260001927	stim	2		50	surprise	0.05	1.0	2000.0	1.0	394.26627580003696	0.49993849999736995
248	374.76537110001664	stim	0		0	surprise	0.05	1.0	2000.0	1.0	394.76621430003433	0.0023917999933473766
248	374.76776290001	stim	1		100	surprise	0.05	1.0	2000.0	1.0	394.7686061000277	0.9980089000018779
248	375.76577180001186	stim	2		50	surprise	0.05	1.0	2000.0	1.0	395.76661500002956	0.5001381000038236
249	376.2659099000157	stim	0		0	surprise	0.05	1.0	2000.0	1.0	396.2667531000334	0.003535399999236688
249	376.2694453000149	stim	1		100	surprise	0.05	1.0	2000.0	1.0	396.2702885000326	0.9965824999962933
249	377.2660278000112	stim	2		50	surprise	0.05	1.0	2000.0	1.0	397.2668710000289	0.4999864000128582
250	377.7660142000241	stim	0		0	surprise	0.05	1.0	2000.0	1.0	397.7668574000418	0.002312899974640459
250	377.7683270999987	stim	1		100	surprise	0.05	1.0	2000.0	1.0	397.7691703000164	0.9987803000258282
250	378.76710740002454	stim	2		50	surprise	0.05	1.0	2000.0	1.0	398.76795060004224	0.49882029998116195
251	379.2659277000057	stim	0		0	surprise	0.05	1.0	2000.0	1.0	399.2667709000234	0.0023455000191461295
251	379.26827320002485	stim	1		100	surprise	0.05	1.0	2000.0	1.0	399.26911640004255	0.997794499999145
251	380.266067700024	stim	2		50	surprise	0.05	1.0	2000.0	1.0	400.2669109000417	0.5009028999775182
252	380.7669706000015	stim	0		0	surprise	0.05	1.0	2000.0	1.0	400.7678138000192	0.0029932000034023076
252	380.7699638000049	stim	1		100	surprise	0.05	1.0	2000.0	1.0	400.7708070000226	0.9961556000052951
252	381.7661194000102	stim	2		50	surprise	0.05	1.0	2000.0	1.0	401.7669626000279	0.5003355999942869
253	382.2664550000045	stim	0		0	surprise	0.05	1.0	2000.0	1.0	402.2672982000222	0.0026288999943062663
253	382.2690838999988	stim	1		100	surprise	0.05	1.0	2000.0	1.0	402.2699271000165	0.9974437000055332
253	383.26652760000434	stim	2		50	surprise	0.05	1.0	2000.0	1.0	403.26737080002204	0.4998924999963492
254	383.7664201000007	stim	0		0	surprise	0.05	1.0	2000.0	1.0	403.7672633000184	0.0024081000010482967
254	383.76882820000174	stim	1		100	surprise	0.05	1.0	2000.0	1.0	403.76967140001943	0.9977346000086982
254	384.76656280001043	stim	2		50	surprise	0.05	1.0	2000.0	1.0	404.76740600002813	0.4997952000121586
255	385.2663580000226	stim	0		0	surprise	0.05	1.0	2000.0	1.0	405.2672012000403	0.0023936999787110835
255	385.2687517000013	stim	1		100	surprise	0.05	1.0	2000.0	1.0	405.269594900019	0.9968215000117198
255	386.265573200013	stim	2		50	surprise	0.05	1.0	2000.0	1.0	406.2664164000307	0.5000230000005104
256	386.76559620001353	stim	0		0	surprise	0.05	1.0	2000.0	1.0	406.76643940003123	0.0025249999889638275
256	386.7681212000025	stim	1		100	surprise	0.05	1.0	2000.0	1.0	406.7689644000202	0.9974360000051092
256	387.7655572000076	stim	2		50	surprise	0.05	1.0	2000.0	1.0	407.7664004000253	0.49998510000295937
257	388.26554230001057	stim	0		0	surprise	0.05	1.0	2000.0	1.0	408.26638550002826	0.002632499992614612
257	388.2681748000032	stim	1		100	surprise	0.05	1.0	2000.0	1.0	408.2690180000209	0.9978196000156458
257	389.2659944000188	stim	2		50	surprise	0.05	1.0	2000.0	1.0	409.2668376000365	0.4993241000047419
258	389.76531850002357	stim	0		0	surprise	0.05	1.0	1000.0	0.9804947171720192	409.76616170004127	0.002650999987963587
258	389.76796950001153	stim	1		100	surprise	0.05	1.0	1000.0	0.9804947171720192	409.76881270002923	0.9974827000114601
258	390.765452200023	stim	2		50	surprise	0.05	1.0	1000.0	0.9804947171720192	410.7662954000407	0.49960599999758415
259	391.2650582000206	stim	0		0	surprise	0.05	1.0	2000.0	1.0	411.2659014000383	0.002376599994022399
259	391.2674348000146	stim	1		100	surprise	0.05	1.0	2000.0	1.0	411.2682780000323	0.9979090999986511
259	392.26534390001325	stim	2		50	surprise	0.05	1.0	2000.0	1.0	412.26618710003095	0.501114000013331
260	392.7664579000266	stim	0		0	surprise	0.05	1.0	2000.0	1.0	412.7673011000443	0.002327299996977672
260	392.76878520002356	stim	1		100	surprise	0.05	1.0	2000.0	1.0	412.76962840004126	0.9978114999830723
260	393.76659670000663	stim	2		50	surprise	0.05	1.0	2000.0	1.0	413.7674399000243	0.5003046999918297
261	394.26690139999846	stim	0		0	surprise	0.05	1.0	1000.0	0.9804947171720192	414.26774460001616	0.002345300017623231
261	394.2692467000161	stim	1		100	surprise	0.05	1.0	1000.0	0.9804947171720192	414.2700899000338	0.9971302000049036
261	395.266376900021	stim	2		50	surprise	0.05	1.0	1000.0	0.9804947171720192	415.2672201000387	0.5001865999947768
262	395.76656350001576	stim	0		0	surprise	0.05	1.0	2000.0	1.0	415.76740670003346	0.002714000002015382
262	395.7692775000178	stim	1		100	surprise	0.05	1.0	2000.0	1.0	415.7701207000355	0.997089499986032
262	396.7663670000038	stim	2		50	surprise	0.05	1.0	2000.0	1.0	416.7672102000215	0.5000023000175133
263	397.2663693000213	stim	0		0	surprise	0.05	1.0	1000.0	0.9804947171720192	417.267212500039	0.002457399998093024
263	397.2688267000194	stim	1		100	surprise	0.05	1.0	1000.0	0.9804947171720192	417.2696699000371	0.9980891000013798
263	398.2669158000208	stim	2		50	surprise	0.05	1.0	1000.0	0.9804947171720192	418.2677590000385	0.5003896999987774
264	398.7673055000196	stim	0		0	surprise	0.05	1.0	2000.0	1.0	418.7681487000373	0.00230089999968186
264	398.76960640001926	stim	1		100	surprise	0.05	1.0	2000.0	1.0	418.77044960003695	0.9974269999947865
264	399.76703340001404	stim	2		50	surprise	0.05	1.0	2000.0	1.0	419.76787660003174	0.4998499999928754
265	400.2668834000069	stim	0		0	surprise	0.05	1.0	2000.0	1.0	420.2677266000246	0.0024849000037647784
265	400.2693683000107	stim	1		100	surprise	0.05	1.0	2000.0	1.0	420.2702115000284	0.9975067999912426
265	401.2668751000019	stim	2		50	surprise	0.05	1.0	2000.0	1.0	421.2677183000196	0.4994091000116896
266	401.7662842000136	stim	0		0	surprise	0.05	1.0	2000.0	1.0	421.7671274000313	0.0024006000021472573
266	401.76868480001576	stim	1		100	surprise	0.05	1.0	2000.0	1.0	421.76952800003346	0.9970621000102255
266	402.765746900026	stim	2		50	surprise	0.05	1.0	2000.0	1.0	422.7665901000437	0.4995879999769386
267	403.2653349000029	stim	0		0	surprise	0.05	1.0	2000.0	1.0	423.2661781000206	0.0024037999974098057
267	403.26773870000034	stim	1		100	surprise	0.05	1.0	2000.0	1.0	423.26858190001803	0.9991600000066683
267	404.266898700007	stim	2		50	surprise	0.05	1.0	2000.0	1.0	424.2677419000247	0.49848130001919344
268	404.7653800000262	stim	0		0	surprise	0.05	1.0	1000.0	0.9804947171720192	424.7662232000439	0.002499299996998161
268	404.7678793000232	stim	1		100	surprise	0.05	1.0	1000.0	0.9804947171720192	424.7687225000409	0.9983310999814421
268	405.76621040000464	stim	2		50	surprise	0.05	1.0	1000.0	0.9804947171720192	425.76705360002234	0.49996630000532605
269	406.26617670000996	stim	0		0	surprise	0.05	1.0	2000.0	1.0	426.26701990002766	0.0026956000074278563
269	406.2688723000174	stim	1		100	surprise	0.05	1.0	2000.0	1.0	426.2697155000351	0.9973634000052698
269	407.26623570002266	stim	2		50	surprise	0.05	1.0	2000.0	1.0	427.26707890004036	0.49993409999297
270	407.76616980001563	stim	0		0	surprise	0.05	1.0	2000.0	1.0	427.76701300003333	0.0023135000083129853
270	407.76848330002395	stim	1		100	surprise	0.05	1.0	2000.0	1.0	427.76932650004164	0.9978117999853566
270	408.7662951000093	stim	2		50	surprise	0.05	1.0	2000.0	1.0	428.767138300027	0.500551600009203
271	409.2668467000185	stim	0		0	surprise	0.05	1.0	2000.0	1.0	429.2676899000362	0.002403299993602559
271	409.2692500000121	stim	1		100	surprise	0.05	1.0	2000.0	1.0	429.2700932000298	0.9973205999995116
271	410.2665706000116	stim	2		50	surprise	0.05	1.0	2000.0	1.0	430.2674138000293	0.5005880999960937
272	410.7671587000077	stim	0		0	surprise	0.05	1.0	1000.0	0.9804947171720192	430.7680019000254	0.004068100010044873
272	410.77122680001776	stim	1		100	surprise	0.05	1.0	1000.0	0.9804947171720192	430.77207000003546	0.9955855000007432
272	411.7668123000185	stim	2		50	surprise	0.05	1.0	1000.0	0.9804947171720192	431.7676555000362	0.4998537999927066
273	412.2666661000112	stim	0		0	surprise	0.05	1.0	2000.0	1.0	432.2675093000289	0.002518599998438731
273	412.26918470000965	stim	1		100	surprise	0.05	1.0	2000.0	1.0	432.27002790002734	0.9976681999978609
273	413.2668529000075	stim	2		50	surprise	0.05	1.0	2000.0	1.0	433.2676961000252	0.49991250000311993
274	413.7667654000106	stim	0		0	surprise	0.05	1.0	2000.0	1.0	433.7676086000283	0.002589100011391565
274	413.769354500022	stim	1		100	surprise	0.05	1.0	2000.0	1.0	433.7701977000397	0.997632499987958
274	414.76698700001	stim	2		50	surprise	0.05	1.0	2000.0	1.0	434.7678302000277	0.5005392000020947
275	415.26752620001207	stim	0		0	surprise	0.05	1.0	2000.0	1.0	435.26836940002977	0.00238540000282228
275	415.2699116000149	stim	1		100	surprise	0.05	1.0	2000.0	1.0	435.2707548000326	0.9969681999937166
275	416.2668798000086	stim	2		50	surprise	0.05	1.0	2000.0	1.0	436.2677230000263	0.5005318000039551
276	416.76741160001257	stim	0		0	surprise	0.05	1.0	2000.0	1.0	436.76825480003026	0.002519300003768876
276	416.76993090001633	stim	1		100	surprise	0.05	1.0	2000.0	1.0	436.77077410003403	0.997410799987847
276	417.7673417000042	stim	2		50	surprise	0.05	1.0	2000.0	1.0	437.7681849000219	0.4999191999959294
277	418.2672609000001	stim	0		0	surprise	0.05	1.0	2000.0	1.0	438.2681041000178	0.0023714000126346946
277	418.26963230001274	stim	1		100	surprise	0.05	1.0	2000.0	1.0	438.27047550003044	0.997262499993667
277	419.2668948000064	stim	2		50	surprise	0.05	1.0	2000.0	1.0	439.2677380000241	0.4996044000145048
278	419.7664992000209	stim	0		0	surprise	0.05	1.0	2000.0	1.0	439.7673424000386	0.0024307999992743134
278	419.7689300000202	stim	1		100	surprise	0.05	1.0	2000.0	1.0	439.7697732000379	0.9977144000004046
278	420.7666444000206	stim	2		50	surprise	0.05	1.0	2000.0	1.0	440.7674876000383	0.49972199997864664
279	421.26636639999924	stim	0		0	surprise	0.05	1.0	2000.0	1.0	441.26720960001694	0.002421100012725219
279	421.26878750001197	stim	1		100	surprise	0.05	1.0	2000.0	1.0	441.26963070002967	0.9975325000123121
279	422.2663200000243	stim	2		50	surprise	0.05	1.0	2000.0	1.0	442.267163200042	0.5000783999857958
280	422.7663984000101	stim	0		0	surprise	0.05	1.0	2000.0	1.0	442.7672416000278	0.002710900007514283
280	422.7691093000176	stim	1		100	surprise	0.05	1.0	2000.0	1.0	442.7699525000353	0.9979863000044134
280	423.767095600022	stim	2		50	surprise	0.05	1.0	2000.0	1.0	443.7679388000397	0.49897950000013225
281	424.26607510002214	stim	0		0	surprise	0.05	1.0	2000.0	1.0	444.26691830003983	0.002460499992594123
281	424.26853560001473	stim	1		100	surprise	0.05	1.0	2000.0	1.0	444.2693788000324	0.9976997000048868
281	425.2662353000196	stim	2		50	surprise	0.05	1.0	2000.0	1.0	445.2670785000373	0.5016558000061195
282	425.76789110002574	stim	0		0	surprise	0.05	1.0	1000.0	0.9804947171720192	445.76873430004343	0.00239719997625798
282	425.770288300002	stim	1		100	surprise	0.05	1.0	1000.0	0.9804947171720192	445.7711315000197	0.996605799999088
282	426.7668941000011	stim	2		50	surprise	0.05	1.0	1000.0	0.9804947171720192	446.7677373000188	0.5004294000100344
283	427.2673235000111	stim	0		0	surprise	0.05	1.0	2000.0	1.0	447.2681667000288	0.0023052000033203512
283	427.26962870001444	stim	1		100	surprise	0.05	1.0	2000.0	1.0	447.27047190003213	0.9979483000061009
283	428.26757700002054	stim	2		50	surprise	0.05	1.0	2000.0	1.0	448.26842020003824	0.49928009998984635
284	428.7668571000104	stim	0		0	surprise	0.05	1.0	2000.0	1.0	448.7677003000281	0.0025687000015750527
284	428.76942580001196	stim	1		100	surprise	0.05	1.0	2000.0	1.0	448.77026900002966	0.9979992999869864
284	429.76742509999895	stim	2		50	surprise	0.05	1.0	2000.0	1.0	449.76826830001664	0.49995540000963956
285	430.2673805000086	stim	0		0	surprise	0.05	1.0	2000.0	1.0	450.2682237000263	0.002648800000315532
285	430.2700293000089	stim	1		100	surprise	0.05	1.0	2000.0	1.0	450.2708725000266	0.9975798999948893
285	431.2676092000038	stim	2		50	surprise	0.05	1.0	2000.0	1.0	451.2684524000215	0.49981880001723766
286	431.767428000021	stim	0		0	surprise	0.05	1.0	2000.0	1.0	451.7682712000387	0.0024945999903138727
286	431.76992260001134	stim	1		100	surprise	0.05	1.0	2000.0	1.0	451.77076580002904	0.9975485999893863
286	432.7674712000007	stim	2		50	surprise	0.05	1.0	2000.0	1.0	452.7683144000184	0.5001193000061903
287	433.2675905000069	stim	0		0	surprise	0.05	1.0	1000.0	0.9804947171720192	453.2684337000246	0.0024118000001180917
287	433.27000230000704	stim	1		100	surprise	0.05	1.0	1000.0	0.9804947171720192	453.27084550002473	0.9976402000174858
287	434.2676425000245	stim	2		50	surprise	0.05	1.0	1000.0	0.9804947171720192	454.2684857000422	0.4996953999798279
288	434.76733790000435	stim	0		0	surprise	0.05	1.0	2000.0	1.0	454.76818110002205	0.0026456000050529838
288	434.7699835000094	stim	1		100	surprise	0.05	1.0	2000.0	1.0	454.7708267000271	0.9965880000090692
288	435.7665715000185	stim	2		50	surprise	0.05	1.0	2000.0	1.0	455.76741470003617	0.4999841999961063
289	436.2665557000146	stim	0		0	surprise	0.05	1.0	2000.0	1.0	456.2673989000323	0.0024608999956399202
289	436.2690166000102	stim	1		100	surprise	0.05	1.0	2000.0	1.0	456.2698598000279	0.9975639999902342
289	437.26658060000045	stim	2		50	surprise	0.05	1.0	2000.0	1.0	457.26742380001815	0.4999429000017699
290	437.7665235000022	stim	0		0	surprise	0.05	-1.0	1000.0	0.9804947171720192	457.7673667000199	0.002488500002073124
290	437.7690120000043	stim	1		100	surprise	0.05	-1.0	1000.0	0.9804947171720192	457.769855200022	0.9986365000077058
290	438.767648500012	stim	2		50	surprise	0.05	-1.0	1000.0	0.9804947171720192	458.7684917000297	0.4985930999973789
291	439.2662416000094	stim	0		0	surprise	0.05	-1.0	1000.0	0.9804947171720192	459.2670848000271	0.0027336000057403
291	439.2689752000151	stim	1		100	surprise	0.05	-1.0	1000.0	0.9804947171720192	459.2698184000328	0.9980373999860603
291	440.2670126000012	stim	2		50	surprise	0.05	-1.0	1000.0	0.9804947171720192	460.2678558000189	0.5010341000161134
292	440.7680467000173	stim	0		0	surprise	0.05	-1.0	1000.0	0.9804947171720192	460.768889900035	0.002564800000982359
292	440.7706115000183	stim	1		100	surprise	0.05	-1.0	1000.0	0.9804947171720192	460.771454700036	0.9963467000052333
292	441.7669582000235	stim	2		50	surprise	0.05	-1.0	1000.0	0.9804947171720192	461.7678014000412	0.49990039999829605
293	442.2668586000218	stim	0		0	surprise	0.05	-1.0	1000.0	0.9804947171720192	462.2677018000395	0.002700799988815561
293	442.2695594000106	stim	1		100	surprise	0.05	-1.0	1000.0	0.9804947171720192	462.2704026000283	0.997991300013382
293	443.267550700024	stim	2		50	surprise	0.05	-1.0	1000.0	0.9804947171720192	463.2683939000417	0.49984439997933805
294	443.76739510000334	stim	0		0	surprise	0.05	-1.0	1000.0	0.9804947171720192	463.76823830002104	0.0025541000068187714
294	443.76994920001016	stim	1		100	surprise	0.05	-1.0	1000.0	0.9804947171720192	463.77079240002786	0.9976114000019152
294	444.7675606000121	stim	2		50	surprise	0.05	-1.0	1000.0	0.9804947171720192	464.7684038000298	0.5003597000031732
295	445.26792030001525	stim	0		0	surprise	0.05	-1.0	1000.0	0.9804947171720192	465.26876350003295	0.0025323999871034175
295	445.27045270000235	stim	1		100	surprise	0.05	-1.0	1000.0	0.9804947171720192	465.27129590002005	0.9969022000150289
295	446.2673549000174	stim	2		50	surprise	0.05	-1.0	1000.0	0.9804947171720192	466.2681981000351	0.5002993999805767
296	446.76765429999796	stim	0		0	surprise	0.05	-1.0	1000.0	0.9804947171720192	466.76849750001566	0.0024059000134002417
296	446.77006020001136	stim	1		100	surprise	0.05	-1.0	1000.0	0.9804947171720192	466.77090340002906	0.9976701000123285
296	447.7677303000237	stim	2		50	surprise	0.05	-1.0	1000.0	0.9804947171720192	467.7685735000414	0.5001373999984935
297	448.2678677000222	stim	0		0	surprise	0.05	-1.0	1000.0	0.9804947171720192	468.2687109000399	0.002502099989214912
297	448.2703698000114	stim	1		100	surprise	0.05	-1.0	1000.0	0.9804947171720192	468.2712130000291	0.9976896000152919
297	449.2680594000267	stim	2		50	surprise	0.05	-1.0	1000.0	0.9804947171720192	469.2689026000444	0.49952109999139793
298	449.7675805000181	stim	0		0	surprise	0.05	-1.0	1000.0	0.9804947171720192	469.7684237000358	0.002592100005131215
298	449.7701726000232	stim	1		100	surprise	0.05	-1.0	1000.0	0.9804947171720192	469.7710158000409	0.997490799985826
298	450.76766340000904	stim	2		50	surprise	0.05	-1.0	1000.0	0.9804947171720192	470.76850660002674	0.4997905000054743
299	451.2674539000145	stim	0		0	surprise	0.05	-1.0	1000.0	0.9804947171720192	471.2682971000322	0.00236459998995997
299	451.2698185000045	stim	1		100	surprise	0.05	-1.0	1000.0	0.9804947171720192	471.2706617000222	0.9978525000042282
299	452.2676710000087	stim	2		500	surprise	0.05	-1.0	1000.0	0.9804947171720192	472.2685142000264	4.999535300012212
