trial_nr	onset	event_type	phase	response	nr_frames	condition	hazard	state	freq	volume	onset_abs	duration
0	0.11382610001601279	stim	0		402	surprise	0.05	1.0	2000.0	1.0	40.80920490002609	4.0194401999760885
0	4.123091100016609	response	0	space		surprise	0.05	1.0	2000.0	1.0	44.818469900026685	
0	4.133266299992101	stim	1		101	surprise	0.05	1.0	2000.0	1.0	44.82864510000218	1.0105602000257932
0	5.143826500017894	stim	2		50	surprise	0.05	1.0	2000.0	1.0	45.83920530002797	0.4997072999831289
1	5.643533800001023	stim	0		0	surprise	0.05	1.0	2000.0	1.0	46.3389126000111	0.002050000010058284
1	5.645583800011082	stim	1		100	surprise	0.05	1.0	2000.0	1.0	46.34096260002116	0.9969293999893125
1	6.642513200000394	stim	2		50	surprise	0.05	1.0	2000.0	1.0	47.33789200001047	0.5001761000021361
2	7.14268930000253	stim	0		0	surprise	0.05	1.0	2000.0	1.0	47.838068100012606	0.0020589999912772328
2	7.1447482999938074	stim	1		100	surprise	0.05	1.0	2000.0	1.0	47.84012710000388	0.9978530000080355
2	8.142601300001843	stim	2		50	surprise	0.05	1.0	2000.0	1.0	48.83798010001192	0.4996775999898091
3	8.642278899991652	stim	0		0	surprise	0.05	1.0	2000.0	1.0	49.33765770000173	0.001988800009712577
3	8.644267700001365	stim	1		100	surprise	0.05	1.0	2000.0	1.0	49.33964650001144	0.9992001999926288
3	9.643467899993993	stim	2		50	surprise	0.05	1.0	2000.0	1.0	50.33884670000407	0.4989664000167977
4	10.142434300010791	stim	0		0	surprise	0.05	1.0	2000.0	1.0	50.83781310002087	0.002049400005489588
4	10.14448370001628	stim	1		100	surprise	0.05	1.0	2000.0	1.0	50.839862500026356	0.9978723999811336
4	11.142356099997414	stim	2		50	surprise	0.05	1.0	2000.0	1.0	51.83773490000749	0.5004622999986168
5	11.642818399996031	stim	0		0	surprise	0.05	1.0	2000.0	1.0	52.33819720000611	0.0021481000003404915
5	11.644966499996372	stim	1		100	surprise	0.05	1.0	2000.0	1.0	52.34034530000645	0.9984701000212226
5	12.643436600017594	stim	2		50	surprise	0.05	1.0	2000.0	1.0	53.33881540002767	0.4999284999794327
6	13.143365099997027	stim	0		0	surprise	0.05	1.0	2000.0	1.0	53.8387439000071	0.002104200015310198
6	13.145469300012337	stim	1		100	surprise	0.05	1.0	2000.0	1.0	53.84084810002241	0.9983037000056356
6	14.143773000017973	stim	2		50	surprise	0.05	1.0	2000.0	1.0	54.83915180002805	0.4996596999990288
7	14.643432700017001	stim	0		0	surprise	0.05	-1.0	1000.0	0.9804947171720192	55.33881150002708	0.002018099999986589
7	14.645450800016988	stim	1		100	surprise	0.05	-1.0	1000.0	0.9804947171720192	55.340829600027064	0.9979053999995813
7	15.64335620001657	stim	2		50	surprise	0.05	-1.0	1000.0	0.9804947171720192	56.338735000026645	0.500594099983573
8	16.143950300000142	stim	0		0	surprise	0.05	-1.0	1000.0	0.9804947171720192	56.83932910001022	0.0020834000024478883
8	16.14603370000259	stim	1		100	surprise	0.05	-1.0	1000.0	0.9804947171720192	56.841412500012666	0.9973585999978241
8	17.143392300000414	stim	2		50	surprise	0.05	-1.0	1000.0	0.9804947171720192	57.83877110001049	0.5007326999912038
9	17.644124999991618	stim	0		0	surprise	0.05	1.0	2000.0	1.0	58.339503800001694	0.002179900009650737
9	17.64630490000127	stim	1		100	surprise	0.05	1.0	2000.0	1.0	58.341683700011345	0.9976373999961652
9	18.643942299997434	stim	2		50	surprise	0.05	1.0	2000.0	1.0	59.33932110000751	0.49980390002019703
10	19.14374620001763	stim	0		0	surprise	0.05	1.0	2000.0	1.0	59.83912500002771	0.00250829997821711
10	19.146254499995848	stim	1		100	surprise	0.05	1.0	2000.0	1.0	59.841633300005924	0.9973987000121269
10	20.143653200007975	stim	2		50	surprise	0.05	1.0	2000.0	1.0	60.83903200001805	0.5010667000024114
11	20.644719900010386	stim	0		0	surprise	0.05	1.0	2000.0	1.0	61.34009870002046	0.002056600002106279
11	20.646776500012493	stim	1		100	surprise	0.05	1.0	2000.0	1.0	61.34215530002257	0.9968834999890532
11	21.643660000001546	stim	2		50	surprise	0.05	1.0	2000.0	1.0	62.33903880001162	0.49974769999971613
12	22.143407700001262	stim	0		0	surprise	0.05	1.0	2000.0	1.0	62.83878650001134	0.0019585000118240714
12	22.145366200013086	stim	1		100	surprise	0.05	1.0	2000.0	1.0	62.84074500002316	0.9974036999919917
12	23.142769900005078	stim	2		50	surprise	0.05	1.0	2000.0	1.0	63.838148700015154	0.49993210000684485
13	23.642702000011923	stim	0		0	surprise	0.05	1.0	2000.0	1.0	64.338080800022	0.002227099990705028
13	23.644929100002628	stim	1		100	surprise	0.05	1.0	2000.0	1.0	64.3403079000127	0.9988594000169542
13	24.643788500019582	stim	2		50	surprise	0.05	1.0	2000.0	1.0	65.33916730002966	0.49934419998317026
14	25.143132700002752	stim	0		0	surprise	0.05	1.0	2000.0	1.0	65.83851150001283	0.002008200011914596
14	25.145140900014667	stim	1		100	surprise	0.05	1.0	2000.0	1.0	65.84051970002474	0.9981329999864101
14	26.143273900001077	stim	2		50	surprise	0.05	1.0	2000.0	1.0	66.83865270001115	0.5005355000030249
15	26.643809400004102	stim	0		0	surprise	0.05	1.0	2000.0	1.0	67.33918820001418	0.0033392999903298914
15	26.647148699994432	stim	1		100	surprise	0.05	1.0	2000.0	1.0	67.34252750000451	0.9962597000121605
15	27.643408400006592	stim	2		50	surprise	0.05	1.0	2000.0	1.0	68.33878720001667	0.49973479998880066
16	28.143143199995393	stim	0		0	surprise	0.05	-1.0	1000.0	0.9804947171720192	68.83852200000547	0.0019964000093750656
16	28.145139600004768	stim	1		100	surprise	0.05	-1.0	1000.0	0.9804947171720192	68.84051840001484	0.9985405000043102
16	29.143680100009078	stim	2		50	surprise	0.05	-1.0	1000.0	0.9804947171720192	69.83905890001915	0.5000766000011936
17	29.64375670001027	stim	0		0	surprise	0.05	-1.0	1000.0	0.9804947171720192	70.33913550002035	0.0021979000011924654
17	29.645954600011464	stim	1		100	surprise	0.05	-1.0	1000.0	0.9804947171720192	70.34133340002154	0.9977835000026971
17	30.64373810001416	stim	2		50	surprise	0.05	-1.0	1000.0	0.9804947171720192	71.33911690002424	0.5008358999912161
18	31.144574000005377	stim	0		0	surprise	0.05	-1.0	1000.0	0.9804947171720192	71.83995280001545	0.0024919999996200204
18	31.147066000004997	stim	1		100	surprise	0.05	-1.0	1000.0	0.9804947171720192	71.84244480001507	0.9966039000137243
18	32.14366990001872	stim	2		50	surprise	0.05	-1.0	1000.0	0.9804947171720192	72.8390487000288	0.5001114999759011
19	32.64378139999462	stim	0		0	surprise	0.05	-1.0	1000.0	0.9804947171720192	73.3391602000047	0.0022467000235337764
19	32.64602810001816	stim	1		100	surprise	0.05	-1.0	1000.0	0.9804947171720192	73.34140690002823	0.9983792999992147
19	33.64440740001737	stim	2		50	surprise	0.05	-1.0	1000.0	0.9804947171720192	74.33978620002745	0.4992715999833308
20	34.1436790000007	stim	0		0	surprise	0.05	1.0	2000.0	1.0	74.83905780001078	0.001995600003283471
20	34.145674600003986	stim	1		100	surprise	0.05	1.0	2000.0	1.0	74.84105340001406	0.9982549000123981
20	35.143929500016384	stim	2		50	surprise	0.05	1.0	2000.0	1.0	75.83930830002646	0.5010574999905657
21	35.64498700000695	stim	0		0	surprise	0.05	1.0	2000.0	1.0	76.34036580001703	0.0021874000085517764
21	35.6471744000155	stim	1		100	surprise	0.05	1.0	2000.0	1.0	76.34255320002558	0.9973882999911439
21	36.644562700006645	stim	2		50	surprise	0.05	1.0	2000.0	1.0	77.33994150001672	0.49975429999176413
22	37.14431699999841	stim	0		0	surprise	0.05	1.0	2000.0	1.0	77.83969580000849	0.0021514999971259385
22	37.146468499995535	stim	1		100	surprise	0.05	1.0	2000.0	1.0	77.84184730000561	0.9979344000166748
22	38.14440290001221	stim	2		50	surprise	0.05	1.0	2000.0	1.0	78.83978170002229	0.5002275999868289
23	38.64463049999904	stim	0		0	surprise	0.05	1.0	2000.0	1.0	79.34000930000911	0.002175600006012246
23	38.64680610000505	stim	1		100	surprise	0.05	1.0	2000.0	1.0	79.34218490001513	0.9966626999957953
23	39.643468800000846	stim	2		50	surprise	0.05	1.0	2000.0	1.0	80.33884760001092	0.4999124000023585
24	40.143381200003205	stim	0		0	surprise	0.05	1.0	2000.0	1.0	80.83876000001328	0.0020262000034563243
24	40.14540740000666	stim	1		100	surprise	0.05	1.0	2000.0	1.0	80.84078620001674	0.9980626000033226
24	41.143470000009984	stim	2		50	surprise	0.05	1.0	2000.0	1.0	81.83884880002006	0.4994928000087384
25	41.64296280001872	stim	0		0	surprise	0.05	1.0	2000.0	1.0	82.3383416000288	0.0023484999837819487
25	41.645311300002504	stim	1		100	surprise	0.05	1.0	2000.0	1.0	82.34069010001258	0.998116700007813
25	42.64342800001032	stim	2		50	surprise	0.05	1.0	2000.0	1.0	83.3388068000204	0.49984949998906814
26	43.143277499999385	stim	0		0	surprise	0.05	1.0	2000.0	1.0	83.83865630000946	0.00237649999326095
26	43.145653999992646	stim	1		100	surprise	0.05	1.0	2000.0	1.0	83.84103280000272	0.9983718000003137
26	44.14402579999296	stim	2		50	surprise	0.05	1.0	2000.0	1.0	84.83940460000304	0.4989829000260215
27	44.64300870001898	stim	0		0	surprise	0.05	1.0	1000.0	0.9804947171720192	85.33838750002906	0.0022764999885112047
27	44.64528520000749	stim	1		100	surprise	0.05	1.0	1000.0	0.9804947171720192	85.34066400001757	0.9979295000084676
27	45.64321470001596	stim	2		50	surprise	0.05	1.0	1000.0	0.9804947171720192	86.33859350002604	0.5016636999789625
28	46.14487839999492	stim	0		0	surprise	0.05	1.0	2000.0	1.0	86.840257200005	0.0022683000133838505
28	46.14714670000831	stim	1		100	surprise	0.05	1.0	2000.0	1.0	86.84252550001838	0.9971513999917079
28	47.144298100000015	stim	2		50	surprise	0.05	1.0	2000.0	1.0	87.83967690001009	0.5086643999966327
29	47.65296249999665	stim	0		0	surprise	0.05	1.0	2000.0	1.0	88.34834130000672	0.0020631000224966556
29	47.655025600019144	stim	1		99	surprise	0.05	1.0	2000.0	1.0	88.35040440002922	0.9891331999970134
29	48.64415880001616	stim	2		50	surprise	0.05	1.0	2000.0	1.0	89.33953760002623	0.5000235999759752
30	49.14418239999213	stim	0		0	surprise	0.05	1.0	2000.0	1.0	89.83956120000221	0.002164500008802861
30	49.146346900000935	stim	1		100	surprise	0.05	1.0	2000.0	1.0	89.84172570001101	0.9978474999952596
30	50.144194399996195	stim	2		50	surprise	0.05	1.0	2000.0	1.0	90.83957320000627	0.5004626000009011
31	50.644656999997096	stim	0		0	surprise	0.05	1.0	2000.0	1.0	91.34003580000717	0.0021806000149808824
31	50.64683760001208	stim	1		100	surprise	0.05	1.0	2000.0	1.0	91.34221640002215	0.9977291999966837
31	51.64456680000876	stim	2		50	surprise	0.05	1.0	2000.0	1.0	92.33994560001884	0.49990329999127425
32	52.144470100000035	stim	0		0	surprise	0.05	1.0	1000.0	0.9804947171720192	92.83984890001011	0.00241650000680238
32	52.14688660000684	stim	1		100	surprise	0.05	1.0	1000.0	0.9804947171720192	92.84226540001691	0.9979259000101592
32	53.144812500017	stim	2		50	surprise	0.05	1.0	1000.0	0.9804947171720192	93.84019130002707	0.49975389998871833
33	53.644566400005715	stim	0		0	surprise	0.05	1.0	2000.0	1.0	94.33994520001579	0.002414099988527596
33	53.64698049999424	stim	1		100	surprise	0.05	1.0	2000.0	1.0	94.34235930000432	0.9983748000231571
33	54.6453553000174	stim	2		50	surprise	0.05	1.0	2000.0	1.0	95.34073410002748	0.49912059999769554
34	55.144475900015095	stim	0		0	surprise	0.05	1.0	2000.0	1.0	95.83985470002517	0.0023558999819215387
34	55.14683179999702	stim	1		100	surprise	0.05	1.0	2000.0	1.0	95.84221060000709	0.9967401000030804
34	56.1435719000001	stim	2		50	surprise	0.05	1.0	2000.0	1.0	96.83895070001017	0.49992220001877286
35	56.64349410001887	stim	0		0	surprise	0.05	1.0	2000.0	1.0	97.33887290002895	0.002763999975286424
35	56.64625809999416	stim	1		100	surprise	0.05	1.0	2000.0	1.0	97.34163690000423	0.9973247000016272
35	57.643582799995784	stim	2		50	surprise	0.05	1.0	2000.0	1.0	98.33896160000586	0.5003683000104502
36	58.143951100006234	stim	0		0	surprise	0.05	1.0	2000.0	1.0	98.83932990001631	0.001987700001336634
36	58.14593880000757	stim	1		100	surprise	0.05	1.0	2000.0	1.0	98.84131760001765	0.9986396000022069
36	59.14457840000978	stim	2		50	surprise	0.05	1.0	2000.0	1.0	99.83995720001985	0.49936909999814816
37	59.643947500007926	stim	0		0	surprise	0.05	1.0	2000.0	1.0	100.339326300018	0.0019792999955825508
37	59.64592680000351	stim	1		100	surprise	0.05	1.0	2000.0	1.0	100.34130560001358	0.9979564000095706
37	60.64388320001308	stim	2		50	surprise	0.05	1.0	2000.0	1.0	101.33926200002315	0.49990860000252724
38	61.143791800015606	stim	0		0	surprise	0.05	1.0	2000.0	1.0	101.83917060002568	0.0023139999830164015
38	61.14610579999862	stim	1		100	surprise	0.05	1.0	2000.0	1.0	101.8414846000087	0.9977882000093814
38	62.143894000008004	stim	2		50	surprise	0.05	1.0	2000.0	1.0	102.83927280001808	0.4994580000056885
39	62.64335200001369	stim	0		0	surprise	0.05	1.0	2000.0	1.0	103.33873080002377	0.001978499989490956
39	62.64533050000318	stim	1		100	surprise	0.05	1.0	2000.0	1.0	103.34070930001326	0.9992690999933984
39	63.64459959999658	stim	2		50	surprise	0.05	1.0	2000.0	1.0	104.33997840000666	0.49992760000168346
40	64.14452719999827	stim	0		0	surprise	0.05	1.0	2000.0	1.0	104.83990600000834	0.00222090000170283
40	64.14674809999997	stim	1		100	surprise	0.05	1.0	2000.0	1.0	104.84212690001004	0.9977170000202022
40	65.14446510002017	stim	2		49	surprise	0.05	1.0	2000.0	1.0	105.83984390003025	0.489234899985604
41	65.63370000000577	stim	0		0	surprise	0.05	1.0	2000.0	1.0	106.32907880001585	0.0018435000092722476
41	65.63554350001505	stim	1		101	surprise	0.05	1.0	2000.0	1.0	106.33092230002512	1.0090179999824613
41	66.64456149999751	stim	2		50	surprise	0.05	1.0	2000.0	1.0	107.33994030000758	0.49989380000624806
42	67.14445530000376	stim	0		0	surprise	0.05	1.0	2000.0	1.0	107.83983410001383	0.0020812000147998333
42	67.14653650001856	stim	1		100	surprise	0.05	1.0	2000.0	1.0	107.84191530002863	0.998307499976363
42	68.14484399999492	stim	2		50	surprise	0.05	1.0	2000.0	1.0	108.840222800005	0.4998568000155501
43	68.64470080001047	stim	0		0	surprise	0.05	1.0	2000.0	1.0	109.34007960002054	0.0023569999902974814
43	68.64705780000077	stim	1		100	surprise	0.05	1.0	2000.0	1.0	109.34243660001084	0.9984584999911021
43	69.64551629999187	stim	2		50	surprise	0.05	1.0	2000.0	1.0	110.34089510000194	0.49915830002282746
44	70.1446746000147	stim	0		0	surprise	0.05	1.0	2000.0	1.0	110.84005340002477	0.0023243000032380223
44	70.14699890001793	stim	1		100	surprise	0.05	1.0	2000.0	1.0	110.84237770002801	0.9976885999785736
44	71.14468749999651	stim	2		50	surprise	0.05	1.0	2000.0	1.0	111.84006630000658	0.5002838000073098
45	71.64497130000382	stim	0		0	surprise	0.05	-1.0	2000.0	1.0	112.3403501000139	0.002208899997640401
45	71.64718020000146	stim	1		100	surprise	0.05	-1.0	2000.0	1.0	112.34255900001153	0.9979578999918886
45	72.64513809999335	stim	2		50	surprise	0.05	-1.0	2000.0	1.0	113.34051690000342	0.4991030000091996
46	73.14424110000255	stim	0		0	surprise	0.05	-1.0	1000.0	0.9804947171720192	113.83961990001262	0.0022726000170223415
46	73.14651370001957	stim	1		100	surprise	0.05	-1.0	1000.0	0.9804947171720192	113.84189250002964	0.9983383999788202
46	74.14485209999839	stim	2		50	surprise	0.05	-1.0	1000.0	0.9804947171720192	114.84023090000846	0.4994455999985803
47	74.64429769999697	stim	0		0	surprise	0.05	-1.0	1000.0	0.9804947171720192	115.33967650000704	0.002060800004983321
47	74.64635850000195	stim	1		100	surprise	0.05	-1.0	1000.0	0.9804947171720192	115.34173730001203	0.9978242999932263
47	75.64418279999518	stim	2		50	surprise	0.05	-1.0	1000.0	0.9804947171720192	116.33956160000525	0.4999765000247862
48	76.14415930001996	stim	0		0	surprise	0.05	-1.0	1000.0	0.9804947171720192	116.83953810003004	0.0025034999998752028
48	76.14666280001984	stim	1		100	surprise	0.05	-1.0	1000.0	0.9804947171720192	116.84204160002992	0.9973938999755774
48	77.14405669999542	stim	2		50	surprise	0.05	-1.0	1000.0	0.9804947171720192	117.8394355000055	0.5000812000071164
49	77.64413790000253	stim	0		0	surprise	0.05	-1.0	1000.0	0.9804947171720192	118.33951670001261	0.002277499996125698
49	77.64641539999866	stim	1		100	surprise	0.05	-1.0	1000.0	0.9804947171720192	118.34179420000874	0.9977208000200335
49	78.64413620001869	stim	2		50	surprise	0.05	-1.0	1000.0	0.9804947171720192	119.33951500002877	0.4998516999767162
50	79.14398789999541	stim	0		0	surprise	0.05	-1.0	1000.0	0.9804947171720192	119.83936670000548	0.0021268000127747655
50	79.14611470000818	stim	1		100	surprise	0.05	-1.0	1000.0	0.9804947171720192	119.84149350001826	0.9987132000096608
50	80.14482790001784	stim	2		50	surprise	0.05	-1.0	1000.0	0.9804947171720192	120.84020670002792	0.5004652999923564
51	80.6452932000102	stim	0		0	surprise	0.05	-1.0	1000.0	0.9804947171720192	121.34067200002028	0.0021523000032175332
51	80.64744550001342	stim	1		99	surprise	0.05	-1.0	1000.0	0.9804947171720192	121.3428243000235	0.9867080999829341
51	81.63415359999635	stim	2		51	surprise	0.05	-1.0	1000.0	0.9804947171720192	122.32953240000643	0.5108745000034105
52	82.14502809999976	stim	0		0	surprise	0.05	-1.0	1000.0	0.9804947171720192	122.84040690000984	0.002203500014729798
52	82.14723160001449	stim	1		99	surprise	0.05	-1.0	1000.0	0.9804947171720192	122.84261040002457	0.9872707999893464
52	83.13450240000384	stim	2		50	surprise	0.05	-1.0	1000.0	0.9804947171720192	123.82988120001392	0.49974649999057874
53	83.63424889999442	stim	0		0	surprise	0.05	-1.0	1000.0	0.9804947171720192	124.3296277000045	0.0020069000020157546
53	83.63625579999643	stim	1		101	surprise	0.05	-1.0	1000.0	0.9804947171720192	124.33163460000651	1.010096500016516
53	84.64635230001295	stim	2		50	surprise	0.05	-1.0	1000.0	0.9804947171720192	125.34173110002303	0.4989857999898959
54	85.14533810000285	stim	0		0	surprise	0.05	-1.0	1000.0	0.9804947171720192	125.84071690001292	0.0023597000108566135
54	85.1476978000137	stim	1		100	surprise	0.05	-1.0	1000.0	0.9804947171720192	125.84307660002378	0.9977872000017669
54	86.14548500001547	stim	2		50	surprise	0.05	-1.0	1000.0	0.9804947171720192	126.84086380002555	0.499947299977066
55	86.64543229999254	stim	0		0	surprise	0.05	-1.0	1000.0	0.9804947171720192	127.34081110000261	0.0022542000224348158
55	86.64768650001497	stim	1		100	surprise	0.05	-1.0	1000.0	0.9804947171720192	127.34306530002505	0.9975820999825373
55	87.64526859999751	stim	2		50	surprise	0.05	-1.0	1000.0	0.9804947171720192	128.34064740000758	0.4999882999982219
56	88.14525689999573	stim	0		0	surprise	0.05	1.0	2000.0	1.0	128.8406357000058	0.0022661999973934144
56	88.14752309999312	stim	1		100	surprise	0.05	1.0	2000.0	1.0	128.8429019000032	0.9978547000209801
56	89.1453778000141	stim	2		50	surprise	0.05	1.0	2000.0	1.0	129.84075660002418	0.49900119999074377
57	89.64437900000485	stim	0		0	surprise	0.05	1.0	2000.0	1.0	130.33975780001492	0.0022301000135485083
57	89.6466091000184	stim	1		100	surprise	0.05	1.0	2000.0	1.0	130.34198790002847	0.9978113999823108
57	90.6444205000007	stim	2		50	surprise	0.05	1.0	2000.0	1.0	131.33979930001078	0.5004233999934513
58	91.14484389999416	stim	0		0	surprise	0.05	1.0	2000.0	1.0	131.84022270000423	0.0019997000053990632
58	91.14684359999956	stim	1		100	surprise	0.05	1.0	2000.0	1.0	131.84222240000963	0.9976681999978609
58	92.14451179999742	stim	2		50	surprise	0.05	1.0	2000.0	1.0	132.8398906000075	0.49954930000239983
59	92.64406109999982	stim	0		0	surprise	0.05	1.0	2000.0	1.0	133.3394399000099	0.002185100020142272
59	92.64624620001996	stim	1		99	surprise	0.05	1.0	2000.0	1.0	133.34162500003004	0.9897497999772895
59	93.63599599999725	stim	2		51	surprise	0.05	1.0	2000.0	1.0	134.33137480000732	0.5080086000089068
60	94.14400460000616	stim	0		0	surprise	0.05	1.0	2000.0	1.0	134.83938340001623	0.0018531999958213419
60	94.14585780000198	stim	1		100	surprise	0.05	1.0	2000.0	1.0	134.84123660001205	0.9989044000103604
60	95.14476220001234	stim	2		50	surprise	0.05	1.0	2000.0	1.0	135.8401410000224	0.5001333999971393
61	95.64489560000948	stim	0		0	surprise	0.05	1.0	2000.0	1.0	136.34027440001955	0.002014400000916794
61	95.6469100000104	stim	1		99	surprise	0.05	1.0	2000.0	1.0	136.34228880002047	0.9882503999979235
61	96.63516040000832	stim	2		51	surprise	0.05	1.0	2000.0	1.0	137.3305392000184	0.5100689000100829
62	97.1452293000184	stim	0		0	surprise	0.05	1.0	2000.0	1.0	137.84060810002848	0.0020061999966856092
62	97.14723550001509	stim	1		99	surprise	0.05	1.0	2000.0	1.0	137.84261430002516	0.987492399988696
62	98.13472790000378	stim	2		51	surprise	0.05	1.0	2000.0	1.0	138.83010670001386	0.5103471000038553
63	98.64507500000764	stim	0		0	surprise	0.05	1.0	2000.0	1.0	139.3404538000177	0.002004899986786768
63	98.64707989999442	stim	1		100	surprise	0.05	1.0	2000.0	1.0	139.3424587000045	0.9981403000128921
63	99.64522020000732	stim	2		49	surprise	0.05	1.0	2000.0	1.0	140.3405990000174	0.48960979998810217
64	100.13482999999542	stim	0		0	surprise	0.05	-1.0	1000.0	0.9804947171720192	140.8302088000055	0.0024277000047732145
64	100.13725770000019	stim	1		101	surprise	0.05	-1.0	1000.0	0.9804947171720192	140.83263650001027	1.0079868000175338
64	101.14524450001772	stim	2		49	surprise	0.05	-1.0	1000.0	0.9804947171720192	141.8406233000278	0.4894356000004336
65	101.63468010001816	stim	0		0	surprise	0.05	-1.0	1000.0	0.9804947171720192	142.33005890002823	0.0022050999978091568
65	101.63688520001597	stim	1		100	surprise	0.05	-1.0	1000.0	0.9804947171720192	142.33226400002604	0.9977427999838255
65	102.6346279999998	stim	2		51	surprise	0.05	-1.0	1000.0	0.9804947171720192	143.33000680000987	0.5109165000030771
66	103.14554450000287	stim	0		0	surprise	0.05	-1.0	1000.0	0.9804947171720192	143.84092330001295	0.0020207999914418906
66	103.14756529999431	stim	1		100	surprise	0.05	-1.0	1000.0	0.9804947171720192	143.8429441000044	0.9989093000185676
66	104.14647460001288	stim	2		50	surprise	0.05	-1.0	1000.0	0.9804947171720192	144.84185340002296	0.4990158999862615
67	104.64549049999914	stim	0		0	surprise	0.05	-1.0	1000.0	0.9804947171720192	145.34086930000922	0.002164200006518513
67	104.64765470000566	stim	1		100	surprise	0.05	-1.0	1000.0	0.9804947171720192	145.34303350001574	0.9977381000062451
67	105.6453928000119	stim	2		50	surprise	0.05	-1.0	1000.0	0.9804947171720192	146.34077160002198	0.500966999999946
68	106.14635980001185	stim	0		0	surprise	0.05	-1.0	1000.0	0.9804947171720192	146.84173860002193	0.0020877000060863793
68	106.14844750001794	stim	1		100	surprise	0.05	-1.0	1000.0	0.9804947171720192	146.843826300028	0.9965709999960382
68	107.14501850001398	stim	2		50	surprise	0.05	-1.0	1000.0	0.9804947171720192	147.84039730002405	0.4998786999785807
69	107.64489719999256	stim	0		0	surprise	0.05	-1.0	1000.0	0.9804947171720192	148.34027600000263	0.001995300000999123
69	107.64689249999356	stim	1		100	surprise	0.05	-1.0	1000.0	0.9804947171720192	148.34227130000363	0.9984861999982968
69	108.64537869999185	stim	2		50	surprise	0.05	-1.0	1000.0	0.9804947171720192	149.34075750000193	0.4995784000202548
70	109.1449571000121	stim	0		0	surprise	0.05	-1.0	1000.0	0.9804947171720192	149.84033590002218	0.002052600000752136
70	109.14700970001286	stim	1		100	surprise	0.05	-1.0	1000.0	0.9804947171720192	149.84238850002293	0.9978196999873035
70	110.14482940000016	stim	2		50	surprise	0.05	-1.0	1000.0	0.9804947171720192	150.84020820001024	0.4999404000118375
71	110.644769800012	stim	0		0	surprise	0.05	-1.0	1000.0	0.9804947171720192	151.34014860002208	0.0021982000034768134
71	110.64696800001548	stim	1		100	surprise	0.05	-1.0	1000.0	0.9804947171720192	151.34234680002555	0.9979070999834221
71	111.6448750999989	stim	2		49	surprise	0.05	-1.0	1000.0	0.9804947171720192	152.34025390000897	0.4910010000166949
72	112.1358761000156	stim	0		0	surprise	0.05	-1.0	1000.0	0.9804947171720192	152.83125490002567	0.002128599997377023
72	112.13800470001297	stim	1		100	surprise	0.05	-1.0	1000.0	0.9804947171720192	152.83338350002305	0.9970286999887321
72	113.1350334000017	stim	2		50	surprise	0.05	-1.0	1000.0	0.9804947171720192	153.83041220001178	0.49995669999043457
73	113.63499009999214	stim	0		0	surprise	0.05	-1.0	1000.0	0.9804947171720192	154.3303689000022	0.002192700019804761
73	113.63718280001194	stim	1		100	surprise	0.05	-1.0	1000.0	0.9804947171720192	154.33256160002202	0.9977528000017628
73	114.6349356000137	stim	2		50	surprise	0.05	-1.0	1000.0	0.9804947171720192	155.33031440002378	0.49987589998636395
74	115.13481150000007	stim	0		0	surprise	0.05	1.0	1000.0	0.9804947171720192	155.83019030001014	0.0019331999938003719
74	115.13674469999387	stim	1		100	surprise	0.05	1.0	1000.0	0.9804947171720192	155.83212350000395	0.9981131000095047
74	116.13485780000337	stim	2		50	surprise	0.05	1.0	1000.0	0.9804947171720192	156.83023660001345	0.4999193999974523
75	116.63477720000083	stim	0		0	surprise	0.05	1.0	2000.0	1.0	157.3301560000109	0.002394900016952306
75	116.63717210001778	stim	1		100	surprise	0.05	1.0	2000.0	1.0	157.33255090002785	0.9982239999808371
75	117.63539609999862	stim	2		50	surprise	0.05	1.0	2000.0	1.0	158.3307749000087	0.49932870001066476
76	118.13472480000928	stim	0		0	surprise	0.05	1.0	1000.0	0.9804947171720192	158.83010360001936	0.002194400003645569
76	118.13691920001293	stim	1		100	surprise	0.05	1.0	1000.0	0.9804947171720192	158.832298000023	0.998816999985138
76	119.13573619999806	stim	2		51	surprise	0.05	1.0	1000.0	0.9804947171720192	159.83111500000814	0.5102690000203438
77	119.64600520001841	stim	0		0	surprise	0.05	1.0	2000.0	1.0	160.34138400002848	0.002393599977949634
77	119.64839879999636	stim	1		100	surprise	0.05	1.0	2000.0	1.0	160.34377760000643	0.9978394000208937
77	120.64623820001725	stim	2		50	surprise	0.05	1.0	2000.0	1.0	161.34161700002733	0.5000567999959458
78	121.1462950000132	stim	0		0	surprise	0.05	1.0	2000.0	1.0	161.84167380002327	0.0023501999967265874
78	121.14864520000992	stim	1		100	surprise	0.05	1.0	2000.0	1.0	161.84402400002	0.9974403000087477
78	122.14608550001867	stim	2		50	surprise	0.05	1.0	2000.0	1.0	162.84146430002875	0.5001006999809761
79	122.64618619999965	stim	0		0	surprise	0.05	1.0	2000.0	1.0	163.34156500000972	0.0021687000116799027
79	122.64835490001133	stim	1		100	surprise	0.05	1.0	2000.0	1.0	163.3437337000214	0.9968823000090197
79	123.64523720002035	stim	2		50	surprise	0.05	1.0	2000.0	1.0	164.34061600003042	0.5001173999917228
80	124.14535460001207	stim	0		0	surprise	0.05	1.0	2000.0	1.0	164.84073340002215	0.0019425000064074993
80	124.14729710001848	stim	1		100	surprise	0.05	1.0	2000.0	1.0	164.84267590002855	0.9979057999735232
80	125.145202899992	stim	2		50	surprise	0.05	1.0	2000.0	1.0	165.84058170000208	0.5001352000108454
81	125.64533810000285	stim	0		0	surprise	0.05	1.0	2000.0	1.0	166.34071690001292	0.0022440000029746443
81	125.64758210000582	stim	1		99	surprise	0.05	1.0	2000.0	1.0	166.3429609000159	0.9885164999868721
81	126.63609859999269	stim	2		50	surprise	0.05	1.0	2000.0	1.0	167.33147740000277	0.4999530000204686
82	127.13605160001316	stim	0		0	surprise	0.05	1.0	2000.0	1.0	167.83143040002324	0.0021883999870624393
82	127.13824000000022	stim	1		100	surprise	0.05	1.0	2000.0	1.0	167.8336188000103	0.9987850000034086
82	128.13702500000363	stim	2		50	surprise	0.05	1.0	2000.0	1.0	168.8324038000137	0.49945770000340417
83	128.63648270000704	stim	0		0	surprise	0.05	1.0	2000.0	1.0	169.3318615000171	0.0024025999882724136
83	128.6388852999953	stim	1		100	surprise	0.05	1.0	2000.0	1.0	169.33426410000538	0.996069200016791
83	129.6349545000121	stim	2		50	surprise	0.05	1.0	2000.0	1.0	170.33033330002218	0.5008818999922369
84	130.13583640000434	stim	0		0	surprise	0.05	1.0	2000.0	1.0	170.8312152000144	0.0022724999871570617
84	130.1381088999915	stim	1		100	surprise	0.05	1.0	2000.0	1.0	170.83348770000157	0.997368300013477
84	131.13547720000497	stim	2		50	surprise	0.05	1.0	2000.0	1.0	171.83085600001505	0.5000233000027947
85	131.63550050000777	stim	0		0	surprise	0.05	1.0	2000.0	1.0	172.33087930001784	0.0020440999942366034
85	131.637544600002	stim	1		100	surprise	0.05	1.0	2000.0	1.0	172.33292340001208	0.9980842999939341
85	132.63562889999594	stim	2		50	surprise	0.05	1.0	2000.0	1.0	173.331007700006	0.5000965000072028
86	133.13572540000314	stim	0		0	surprise	0.05	1.0	1000.0	0.9804947171720192	173.83110420001321	0.002334699995117262
86	133.13806009999826	stim	1		100	surprise	0.05	1.0	1000.0	0.9804947171720192	173.83343890000833	0.9979484000068624
86	134.13600850000512	stim	2		50	surprise	0.05	1.0	1000.0	0.9804947171720192	174.8313873000152	0.49929740000516176
87	134.63530590001028	stim	0		0	surprise	0.05	1.0	2000.0	1.0	175.33068470002036	0.0021247999975457788
87	134.63743070000783	stim	1		100	surprise	0.05	1.0	2000.0	1.0	175.3328095000179	0.9979491999838501
87	135.63537989999168	stim	2		50	surprise	0.05	1.0	2000.0	1.0	176.33075870000175	0.5002882000117097
88	136.1356681000034	stim	0		0	surprise	0.05	1.0	2000.0	1.0	176.83104690001346	0.002243299997644499
88	136.13791140000103	stim	1		101	surprise	0.05	1.0	2000.0	1.0	176.8332902000111	1.0085475000087172
88	137.14645890000975	stim	2		50	surprise	0.05	1.0	2000.0	1.0	177.84183770001982	0.499835599999642
89	137.6462945000094	stim	0		0	surprise	0.05	1.0	2000.0	1.0	178.34167330001947	0.0021902000007685274
89	137.64848470001016	stim	1		99	surprise	0.05	1.0	2000.0	1.0	178.34386350002023	0.9883019999833778
89	138.63678669999354	stim	2		50	surprise	0.05	1.0	2000.0	1.0	179.3321655000036	0.49918750001234
90	139.13597420000588	stim	0		0	surprise	0.05	1.0	2000.0	1.0	179.83135300001595	0.0021816999942529947
90	139.13815590000013	stim	1		101	surprise	0.05	1.0	2000.0	1.0	179.8335347000102	1.0071094000013545
90	140.14526530000148	stim	2		50	surprise	0.05	1.0	2000.0	1.0	180.84064410001156	0.49995379999745637
91	140.64521909999894	stim	0		0	surprise	0.05	1.0	2000.0	1.0	181.34059790000902	0.001953800005139783
91	140.64717290000408	stim	1		100	surprise	0.05	1.0	2000.0	1.0	181.34255170001416	0.9986652999941725
91	141.64583819999825	stim	2		49	surprise	0.05	1.0	2000.0	1.0	182.34121700000833	0.49106070000561886
92	142.13689890000387	stim	0		0	surprise	0.05	1.0	2000.0	1.0	182.83227770001395	0.002353199990466237
92	142.13925209999434	stim	1		100	surprise	0.05	1.0	2000.0	1.0	182.8346309000044	0.9982232000038493
92	143.1374752999982	stim	2		50	surprise	0.05	1.0	2000.0	1.0	183.83285410000826	0.4991543000214733
93	143.63662960001966	stim	0		0	surprise	0.05	1.0	2000.0	1.0	184.33200840002974	0.0021622999920509756
93	143.6387919000117	stim	1		100	surprise	0.05	1.0	2000.0	1.0	184.3341707000218	0.9978310999867972
93	144.6366229999985	stim	2		50	surprise	0.05	1.0	2000.0	1.0	185.33200180000858	0.5002565000031609
94	145.13687950000167	stim	0		0	surprise	0.05	1.0	2000.0	1.0	185.83225830001174	0.002144500002032146
94	145.1390240000037	stim	1		100	surprise	0.05	1.0	2000.0	1.0	185.83440280001378	0.9976596999913454
94	146.13668369999505	stim	2		50	surprise	0.05	1.0	2000.0	1.0	186.83206250000512	0.4990832000039518
95	146.635766899999	stim	0		0	surprise	0.05	1.0	2000.0	1.0	187.33114570000907	0.0021217000030446798
95	146.63788860000204	stim	1		100	surprise	0.05	1.0	2000.0	1.0	187.33326740001212	0.9977740000176709
95	147.6356626000197	stim	2		50	surprise	0.05	1.0	2000.0	1.0	188.3310414000298	0.4997488999797497
96	148.13541149999946	stim	0		0	surprise	0.05	1.0	2000.0	1.0	188.83079030000954	0.0019143999961670488
96	148.13732589999563	stim	1		100	surprise	0.05	1.0	2000.0	1.0	188.8327047000057	0.9984893000219017
96	149.13581520001753	stim	2		50	surprise	0.05	1.0	2000.0	1.0	189.8311940000276	0.49980359998880886
97	149.63561880000634	stim	0		0	surprise	0.05	1.0	2000.0	1.0	190.33099760001642	0.0021223000076133758
97	149.63774110001395	stim	1		100	surprise	0.05	1.0	2000.0	1.0	190.33311990002403	0.9978194999857806
97	150.63556059999974	stim	2		50	surprise	0.05	1.0	2000.0	1.0	191.3309394000098	0.499876799993217
98	151.13543739999295	stim	0		0	surprise	0.05	1.0	2000.0	1.0	191.83081620000303	0.0019090000132564455
98	151.1373464000062	stim	1		100	surprise	0.05	1.0	2000.0	1.0	191.83272520001628	0.9987835999927483
98	152.13612999999896	stim	2		50	surprise	0.05	1.0	2000.0	1.0	192.83150880000903	0.5001752999960445
99	152.636305299995	stim	0		0	surprise	0.05	1.0	2000.0	1.0	193.33168410000508	0.002060600003460422
99	152.63836589999846	stim	1		100	surprise	0.05	1.0	2000.0	1.0	193.33374470000854	0.9984843000129331
99	153.6368502000114	stim	2		50	surprise	0.05	1.0	2000.0	1.0	194.33222900002147	0.49978379998356104
100	154.13663399999496	stim	0		0	surprise	0.05	1.0	2000.0	1.0	194.83201280000503	0.002277000021422282
100	154.13891100001638	stim	1		100	surprise	0.05	1.0	2000.0	1.0	194.83428980002645	0.9975717999914195
100	155.1364828000078	stim	2		50	surprise	0.05	1.0	2000.0	1.0	195.83186160001787	0.5001472999865655
101	155.63663009999436	stim	0		0	surprise	0.05	1.0	2000.0	1.0	196.33200890000444	0.0023662000021431595
101	155.6389962999965	stim	1		100	surprise	0.05	1.0	2000.0	1.0	196.33437510000658	0.9975113999971654
101	156.63650769999367	stim	2		50	surprise	0.05	1.0	2000.0	1.0	197.33188650000375	0.5000785000156611
102	157.13658620000933	stim	0		0	surprise	0.05	1.0	2000.0	1.0	197.8319650000194	0.0023890000011306256
102	157.13897520001046	stim	1		100	surprise	0.05	1.0	2000.0	1.0	197.83435400002054	0.9980665000039153
102	158.13704170001438	stim	2		50	surprise	0.05	1.0	2000.0	1.0	198.83242050002445	0.49987219998729415
103	158.63691390000167	stim	0		0	surprise	0.05	1.0	2000.0	1.0	199.33229270001175	0.0022415000130422413
103	158.63915540001472	stim	1		100	surprise	0.05	1.0	2000.0	1.0	199.3345342000248	0.9977325999934692
103	159.63688800000818	stim	2		50	surprise	0.05	1.0	2000.0	1.0	200.33226680001826	0.500264000002062
104	160.13715200001025	stim	0		0	surprise	0.05	1.0	2000.0	1.0	200.83253080002032	0.0025200000090990216
104	160.13967200001935	stim	1		100	surprise	0.05	1.0	2000.0	1.0	200.83505080002942	0.9971627999912016
104	161.13683480001055	stim	2		50	surprise	0.05	1.0	2000.0	1.0	201.83221360002062	0.5000306000001729
105	161.63686540001072	stim	0		0	surprise	0.05	1.0	2000.0	1.0	202.3322442000208	0.0021244999952614307
105	161.63898990000598	stim	1		100	surprise	0.05	1.0	2000.0	1.0	202.33436870001606	0.9979226999857929
105	162.63691259999177	stim	2		50	surprise	0.05	1.0	2000.0	1.0	203.33229140000185	0.49892720000934787
106	163.13583980000112	stim	0		0	surprise	0.05	1.0	2000.0	1.0	203.8312186000112	0.001973800011910498
106	163.13781360001303	stim	1		100	surprise	0.05	1.0	2000.0	1.0	203.8331924000231	0.9986066999845207
106	164.13642029999755	stim	2		50	surprise	0.05	1.0	2000.0	1.0	204.83179910000763	0.5000896000128705
107	164.63650990001042	stim	0		0	surprise	0.05	1.0	2000.0	1.0	205.3318887000205	0.0023398000048473477
107	164.63884970001527	stim	1		100	surprise	0.05	1.0	2000.0	1.0	205.33422850002535	0.9975497999985237
107	165.6363995000138	stim	2		50	surprise	0.05	1.0	2000.0	1.0	206.33177830002387	0.4996660999895539
108	166.13606560000335	stim	0		0	surprise	0.05	1.0	2000.0	1.0	206.83144440001342	0.0022484000073745847
108	166.13831400001072	stim	1		100	surprise	0.05	1.0	2000.0	1.0	206.8336928000208	0.9978684000088833
108	167.1361824000196	stim	2		50	surprise	0.05	1.0	2000.0	1.0	207.83156120002968	0.5000557999883313
109	167.63623820000794	stim	0		0	surprise	0.05	1.0	2000.0	1.0	208.331617000018	0.0019595999910961837
109	167.63819779999903	stim	1		100	surprise	0.05	1.0	2000.0	1.0	208.3335766000091	0.9981311000010464
109	168.63632890000008	stim	2		50	surprise	0.05	1.0	2000.0	1.0	209.33170770001016	0.5000231000012718
110	169.13635200000135	stim	0		0	surprise	0.05	1.0	2000.0	1.0	209.83173080001143	0.002174699999159202
110	169.1385267000005	stim	1		100	surprise	0.05	1.0	2000.0	1.0	209.8339055000106	0.9983340000035241
110	170.13686070000404	stim	2		50	surprise	0.05	1.0	2000.0	1.0	210.8322395000141	0.49996409998857416
111	170.6368247999926	stim	0		0	surprise	0.05	1.0	2000.0	1.0	211.33220360000269	0.0024892000074032694
111	170.639314	stim	1		100	surprise	0.05	1.0	2000.0	1.0	211.3346928000101	0.9977104999998119
111	171.63702449999982	stim	2		50	surprise	0.05	1.0	2000.0	1.0	212.3324033000099	0.4997933999984525
112	172.13681789999828	stim	0		0	surprise	0.05	1.0	1000.0	0.9804947171720192	212.83219670000835	0.0023240000009536743
112	172.13914189999923	stim	1		100	surprise	0.05	1.0	1000.0	0.9804947171720192	212.8345207000093	0.9990647000086028
112	173.13820660000783	stim	2		50	surprise	0.05	1.0	1000.0	0.9804947171720192	213.8335854000179	0.4987904999870807
113	173.63699709999491	stim	0		0	surprise	0.05	1.0	2000.0	1.0	214.332375900005	0.0020345000084489584
113	173.63903160000336	stim	1		100	surprise	0.05	1.0	2000.0	1.0	214.33441040001344	0.9978567000071052
113	174.63688830001047	stim	2		50	surprise	0.05	1.0	2000.0	1.0	215.33226710002054	0.5011148999910802
114	175.13800320000155	stim	0		0	surprise	0.05	1.0	2000.0	1.0	215.83338200001162	0.0024606999941170216
114	175.14046389999567	stim	1		100	surprise	0.05	1.0	2000.0	1.0	215.83584270000574	0.9968001000233926
114	176.13726400001906	stim	2		50	surprise	0.05	1.0	2000.0	1.0	216.83264280002913	0.5003496999852359
115	176.6376137000043	stim	0		0	surprise	0.05	1.0	2000.0	1.0	217.33299250001437	0.0021708999993279576
115	176.63978460000362	stim	1		100	surprise	0.05	1.0	2000.0	1.0	217.3351634000137	0.9979688000166789
115	177.6377534000203	stim	2		50	surprise	0.05	1.0	2000.0	1.0	218.33313220003038	0.49980890000006184
116	178.13756230002036	stim	0		0	surprise	0.05	1.0	2000.0	1.0	218.83294110003044	0.00231719997827895
116	178.13987949999864	stim	1		100	surprise	0.05	1.0	2000.0	1.0	218.83525830000872	0.9976495000009891
116	179.13752899999963	stim	2		50	surprise	0.05	1.0	2000.0	1.0	219.8329078000097	0.5007351000094786
117	179.6382641000091	stim	0		0	surprise	0.05	1.0	1000.0	0.9804947171720192	220.33364290001919	0.002283399982843548
117	179.64054749999195	stim	1		100	surprise	0.05	1.0	1000.0	0.9804947171720192	220.33592630000203	0.9958890000125393
117	180.6364365000045	stim	2		50	surprise	0.05	1.0	1000.0	0.9804947171720192	221.33181530001457	0.5001117000065278
118	181.13654820001102	stim	0		0	surprise	0.05	1.0	2000.0	1.0	221.8319270000211	0.002260299981571734
118	181.1388084999926	stim	1		100	surprise	0.05	1.0	2000.0	1.0	221.83418730000267	0.9975836000230629
118	182.13639210001566	stim	2		50	surprise	0.05	1.0	2000.0	1.0	222.83177090002573	0.5000760999973863
119	182.63646820001304	stim	0		0	surprise	0.05	1.0	1000.0	0.9804947171720192	223.33184700002312	0.0024651999992784113
119	182.63893340001232	stim	1		100	surprise	0.05	1.0	1000.0	0.9804947171720192	223.3343122000224	0.9975835999939591
119	183.63651700000628	stim	2		50	surprise	0.05	1.0	1000.0	0.9804947171720192	224.33189580001635	0.499924200004898
120	184.13644120001118	stim	0		0	surprise	0.05	1.0	1000.0	0.9804947171720192	224.83182000002125	0.0021497999841813
120	184.13859099999536	stim	1		100	surprise	0.05	1.0	1000.0	0.9804947171720192	224.83396980000543	0.9978732000163291
120	185.1364642000117	stim	2		50	surprise	0.05	1.0	1000.0	0.9804947171720192	225.83184300002176	0.5000328999885824
121	185.63649710000027	stim	0		0	surprise	0.05	1.0	2000.0	1.0	226.33187590001035	0.0021409000037238
121	185.638638000004	stim	1		100	surprise	0.05	1.0	2000.0	1.0	226.33401680001407	0.9984580999880563
121	186.63709609999205	stim	2		50	surprise	0.05	1.0	2000.0	1.0	227.33247490000213	0.49999680000473745
122	187.1370928999968	stim	0		0	surprise	0.05	1.0	2000.0	1.0	227.83247170000686	0.0020047000143676996
122	187.13909760001116	stim	1		100	surprise	0.05	1.0	2000.0	1.0	227.83447640002123	0.9987069999915548
122	188.1378046000027	stim	2		50	surprise	0.05	1.0	2000.0	1.0	228.83318340001279	0.4994814000092447
123	188.63728600001195	stim	0		0	surprise	0.05	1.0	2000.0	1.0	229.33266480002203	0.002057400008197874
123	188.63934340002015	stim	1		100	surprise	0.05	1.0	2000.0	1.0	229.33472220003023	0.9980135999794584
123	189.6373569999996	stim	2		50	surprise	0.05	1.0	2000.0	1.0	230.3327358000097	0.5004556000058074
124	190.13781260000542	stim	0		0	surprise	0.05	1.0	2000.0	1.0	230.8331914000155	0.0024646999954711646
124	190.1402773000009	stim	1		100	surprise	0.05	1.0	2000.0	1.0	230.83565610001097	0.9970902999921236
124	191.137367599993	stim	2		50	surprise	0.05	1.0	2000.0	1.0	231.8327464000031	0.500425100006396
125	191.6377926999994	stim	0		0	surprise	0.05	1.0	2000.0	1.0	232.33317150000948	0.002362600003834814
125	191.64015530000324	stim	1		100	surprise	0.05	1.0	2000.0	1.0	232.33553410001332	0.9975659000047017
125	192.63772120000795	stim	2		50	surprise	0.05	1.0	2000.0	1.0	233.33310000001802	0.5000012000091374
126	193.13772240001708	stim	0		0	surprise	0.05	1.0	2000.0	1.0	233.83310120002716	0.002059999998891726
126	193.13978240001597	stim	1		100	surprise	0.05	1.0	2000.0	1.0	233.83516120002605	0.9979502999922261
126	194.1377327000082	stim	2		50	surprise	0.05	1.0	2000.0	1.0	234.83311150001828	0.5006108999950811
127	194.63834360000328	stim	0		0	surprise	0.05	1.0	2000.0	1.0	235.33372240001336	0.002776100009214133
127	194.6411197000125	stim	1		100	surprise	0.05	1.0	2000.0	1.0	235.33649850002257	0.9965405999973882
127	195.63766030000988	stim	2		50	surprise	0.05	1.0	2000.0	1.0	236.33303910001996	0.5002377000055276
128	196.1378980000154	stim	0		0	surprise	0.05	1.0	2000.0	1.0	236.8332768000255	0.002215099986642599
128	196.14011310000205	stim	1		100	surprise	0.05	1.0	2000.0	1.0	236.83549190001213	0.9964700000127777
128	197.13658310001483	stim	2		50	surprise	0.05	1.0	2000.0	1.0	237.8319619000249	0.5000907999929041
129	197.63667390000774	stim	0		0	surprise	0.05	1.0	2000.0	1.0	238.3320527000178	0.0020443999965209514
129	197.63871830000426	stim	1		100	surprise	0.05	1.0	2000.0	1.0	238.33409710001433	0.9983153000066523
129	198.6370336000109	stim	2		50	surprise	0.05	1.0	2000.0	1.0	239.33241240002098	0.4995601999980863
130	199.136593800009	stim	0		0	surprise	0.05	1.0	2000.0	1.0	239.83197260001907	0.0023705000057816505
130	199.13896430001478	stim	1		100	surprise	0.05	1.0	2000.0	1.0	239.83434310002485	0.998219600005541
130	200.13718390002032	stim	2		50	surprise	0.05	1.0	2000.0	1.0	240.8325627000304	0.5000446999911219
131	200.63722860001144	stim	0		0	surprise	0.05	1.0	2000.0	1.0	241.33260740002152	0.002052299998467788
131	200.6392809000099	stim	1		100	surprise	0.05	1.0	2000.0	1.0	241.33465970001998	0.9978584999917075
131	201.63713940000162	stim	2		50	surprise	0.05	1.0	2000.0	1.0	242.3325182000117	0.4999413000186905
132	202.1370807000203	stim	0		0	surprise	0.05	1.0	2000.0	1.0	242.83245950003038	0.002164399978937581
132	202.13924509999924	stim	1		100	surprise	0.05	1.0	2000.0	1.0	242.83462390000932	0.9981011000054423
132	203.13734620000469	stim	2		50	surprise	0.05	1.0	2000.0	1.0	243.83272500001476	0.5002555999963079
133	203.637601800001	stim	0		0	surprise	0.05	1.0	2000.0	1.0	244.33298060001107	0.0023987000167835504
133	203.64000050001778	stim	1		100	surprise	0.05	1.0	2000.0	1.0	244.33537930002785	0.9976349999778904
133	204.63763549999567	stim	2		50	surprise	0.05	1.0	2000.0	1.0	245.33301430000574	0.5007107999990694
134	205.13834629999474	stim	0		0	surprise	0.05	1.0	2000.0	1.0	245.8337251000048	0.0021715000038966537
134	205.14051779999863	stim	1		100	surprise	0.05	1.0	2000.0	1.0	245.8358966000087	0.9970930000126828
134	206.13761080001132	stim	2		50	surprise	0.05	1.0	2000.0	1.0	246.8329896000214	0.5000203000090551
135	206.63763110002037	stim	0		0	surprise	0.05	-1.0	1000.0	0.9804947171720192	247.33300990003045	0.0020434999896679074
135	206.63967460001004	stim	1		100	surprise	0.05	-1.0	1000.0	0.9804947171720192	247.33505340002012	0.9985299999825656
135	207.6382045999926	stim	2		50	surprise	0.05	-1.0	1000.0	0.9804947171720192	248.33358340000268	0.4994985000230372
136	208.13770310001564	stim	0		0	surprise	0.05	-1.0	1000.0	0.9804947171720192	248.83308190002572	0.002137100003892556
136	208.13984020001953	stim	1		100	surprise	0.05	-1.0	1000.0	0.9804947171720192	248.8352190000296	0.9980667999770958
136	209.13790699999663	stim	2		50	surprise	0.05	-1.0	1000.0	0.9804947171720192	249.8332858000067	0.500394700007746
137	209.63830170000438	stim	0		0	surprise	0.05	-1.0	1000.0	0.9804947171720192	250.33368050001445	0.002142699988326058
137	209.6404443999927	stim	1		100	surprise	0.05	-1.0	1000.0	0.9804947171720192	250.33582320000278	0.9974656000267714
137	210.63791000001947	stim	2		50	surprise	0.05	-1.0	1000.0	0.9804947171720192	251.33328880002955	0.4997576999885496
138	211.13766770000802	stim	0		0	surprise	0.05	-1.0	1000.0	0.9804947171720192	251.8330465000181	0.0021856999956071377
138	211.13985340000363	stim	1		100	surprise	0.05	-1.0	1000.0	0.9804947171720192	251.8352322000137	0.9986309999949299
138	212.13848439999856	stim	2		50	surprise	0.05	-1.0	1000.0	0.9804947171720192	252.83386320000864	0.5000138000177685
139	212.63849820001633	stim	0		0	surprise	0.05	-1.0	2000.0	1.0	253.3338770000264	0.00235870000324212
139	212.64085690001957	stim	1		100	surprise	0.05	-1.0	2000.0	1.0	253.33623570002965	0.996910099987872
139	213.63776700000744	stim	2		50	surprise	0.05	-1.0	2000.0	1.0	254.33314580001752	0.49941869999747723
140	214.13718570000492	stim	0		0	surprise	0.05	-1.0	1000.0	0.9804947171720192	254.832564500015	0.00204309998662211
140	214.13922879999154	stim	1		100	surprise	0.05	-1.0	1000.0	0.9804947171720192	254.83460760000162	0.9980744000058621
140	215.1373031999974	stim	2		50	surprise	0.05	-1.0	1000.0	0.9804947171720192	255.83268200000748	0.4999083000002429
141	215.63721149999765	stim	0		0	surprise	0.05	-1.0	1000.0	0.9804947171720192	256.3325903000077	0.0020784000225830823
141	215.63928990002023	stim	1		100	surprise	0.05	-1.0	1000.0	0.9804947171720192	256.3346687000303	0.9981067999906372
141	216.63739670001087	stim	2		50	surprise	0.05	-1.0	1000.0	0.9804947171720192	257.33277550002094	0.4999565999896731
142	217.13735330000054	stim	0		0	surprise	0.05	-1.0	1000.0	0.9804947171720192	257.8327321000106	0.0022373000101651996
142	217.1395906000107	stim	1		100	surprise	0.05	-1.0	1000.0	0.9804947171720192	257.8349694000208	0.9980257999850437
142	218.13761639999575	stim	2		50	surprise	0.05	-1.0	1000.0	0.9804947171720192	258.8329952000058	0.4993953000230249
143	218.63701170001877	stim	0		0	surprise	0.05	-1.0	1000.0	0.9804947171720192	259.33239050002885	0.002076299977488816
143	218.63908799999626	stim	1		100	surprise	0.05	-1.0	1000.0	0.9804947171720192	259.33446680000634	0.9982891000108793
143	219.63737710000714	stim	2		50	surprise	0.05	-1.0	1000.0	0.9804947171720192	260.3327559000172	0.5006625000096392
144	220.13803960001678	stim	0		0	surprise	0.05	-1.0	1000.0	0.9804947171720192	260.83341840002686	0.0024275999749079347
144	220.1404671999917	stim	1		100	surprise	0.05	-1.0	1000.0	0.9804947171720192	260.83584600000177	0.9974091000040062
144	221.1378762999957	stim	2		50	surprise	0.05	-1.0	1000.0	0.9804947171720192	261.8332551000058	0.4999862000113353
145	221.63786250000703	stim	0		0	surprise	0.05	-1.0	1000.0	0.9804947171720192	262.3332413000171	0.0020315999863669276
145	221.6398940999934	stim	1		100	surprise	0.05	-1.0	1000.0	0.9804947171720192	262.3352729000035	0.9984494000091217
145	222.63834350000252	stim	2		50	surprise	0.05	-1.0	1000.0	0.9804947171720192	263.3337223000126	0.49964240001281723
146	223.13798590001534	stim	0		0	surprise	0.05	-1.0	1000.0	0.9804947171720192	263.8333647000254	0.002293400000780821
146	223.14027930001612	stim	1		100	surprise	0.05	-1.0	1000.0	0.9804947171720192	263.8356581000262	0.9977528000017628
146	224.13803210001788	stim	2		50	surprise	0.05	-1.0	1000.0	0.9804947171720192	264.83341090002796	0.5001907999976538
147	224.63822290001553	stim	0		0	surprise	0.05	-1.0	1000.0	0.9804947171720192	265.3336017000256	0.0023517999798059464
147	224.64057469999534	stim	1		100	surprise	0.05	-1.0	1000.0	0.9804947171720192	265.3359535000054	0.9979626999993343
147	225.63853739999468	stim	2		50	surprise	0.05	-1.0	1000.0	0.9804947171720192	266.33391620000475	0.5007825000211596
148	226.13931990001583	stim	0		0	surprise	0.05	-1.0	1000.0	0.9804947171720192	266.8346987000259	0.002171300002373755
148	226.1414912000182	stim	1		100	surprise	0.05	-1.0	1000.0	0.9804947171720192	266.8368700000283	0.9969948999932967
148	227.1384861000115	stim	2		50	surprise	0.05	-1.0	1000.0	0.9804947171720192	267.8338649000216	0.4999895000073593
149	227.63847560001886	stim	0		0	surprise	0.05	-1.0	1000.0	0.9804947171720192	268.33385440002894	0.002691299974685535
149	227.64116689999355	stim	1		100	surprise	0.05	-1.0	1000.0	0.9804947171720192	268.3365457000036	0.9973315000243019
149	228.63849840001785	stim	2		50	surprise	0.05	-1.0	1000.0	0.9804947171720192	269.3338772000279	0.4997809999913443
150	229.1382794000092	stim	0		0	surprise	0.05	-1.0	2000.0	1.0	269.8336582000193	0.0024018999829422683
150	229.14068129999214	stim	1		100	surprise	0.05	-1.0	2000.0	1.0	269.8360601000022	0.9967641000112053
150	230.13744540000334	stim	2		50	surprise	0.05	-1.0	2000.0	1.0	270.8328242000134	0.5000651000009384
151	230.63751050000428	stim	0		0	surprise	0.05	-1.0	1000.0	0.9804947171720192	271.33288930001436	0.0021081000159028918
151	230.63961860002019	stim	1		100	surprise	0.05	-1.0	1000.0	0.9804947171720192	271.33499740003026	0.997891199978767
151	231.63750979999895	stim	2		50	surprise	0.05	-1.0	1000.0	0.9804947171720192	272.332888600009	0.49970980000216514
152	232.13721960000112	stim	0		0	surprise	0.05	-1.0	1000.0	0.9804947171720192	272.8325984000112	0.0019647000008262694
152	232.13918430000194	stim	1		100	surprise	0.05	-1.0	1000.0	0.9804947171720192	272.834563100012	0.9982082000060473
152	233.137392500008	stim	2		50	surprise	0.05	-1.0	1000.0	0.9804947171720192	273.83277130001807	0.5003616999892984
153	233.6377541999973	stim	0		0	surprise	0.05	-1.0	1000.0	0.9804947171720192	274.33313300000736	0.002085100015392527
153	233.63983930001268	stim	1		100	surprise	0.05	-1.0	1000.0	0.9804947171720192	274.33521810002276	0.9981951999943703
153	234.63803450000705	stim	2		50	surprise	0.05	-1.0	1000.0	0.9804947171720192	275.3334133000171	0.5004724999889731
154	235.13850699999603	stim	0		0	surprise	0.05	-1.0	1000.0	0.9804947171720192	275.8338858000061	0.0023407000117003918
154	235.14084770000773	stim	1		100	surprise	0.05	-1.0	1000.0	0.9804947171720192	275.8362265000178	0.9969973000115715
154	236.1378450000193	stim	2		50	surprise	0.05	-1.0	1000.0	0.9804947171720192	276.8332238000294	0.5000201999791898
155	236.6378651999985	stim	0		0	surprise	0.05	-1.0	1000.0	0.9804947171720192	277.33324400000856	0.0020730000105686486
155	236.63993820000906	stim	1		100	surprise	0.05	-1.0	1000.0	0.9804947171720192	277.33531700001913	0.998575500008883
155	237.63851370001794	stim	2		50	surprise	0.05	-1.0	1000.0	0.9804947171720192	278.333892500028	0.49986109999008477
156	238.13837480000802	stim	0		0	surprise	0.05	-1.0	1000.0	0.9804947171720192	278.8337536000181	0.0021342000109143555
156	238.14050900001894	stim	1		100	surprise	0.05	-1.0	1000.0	0.9804947171720192	278.835887800029	0.9979198999935761
156	239.1384289000125	stim	2		50	surprise	0.05	-1.0	1000.0	0.9804947171720192	279.8338077000226	0.4999846999999136
157	239.63841360001243	stim	0		0	surprise	0.05	-1.0	1000.0	0.9804947171720192	280.3337924000225	0.002126199979102239
157	239.64053979999153	stim	1		100	surprise	0.05	-1.0	1000.0	0.9804947171720192	280.3359186000016	0.9980225000181235
157	240.63856230000965	stim	2		50	surprise	0.05	-1.0	1000.0	0.9804947171720192	281.33394110001973	0.49992139998357743
158	241.13848369999323	stim	0		0	surprise	0.05	-1.0	1000.0	0.9804947171720192	281.8338625000033	0.0021501000155694783
158	241.1406338000088	stim	1		100	surprise	0.05	-1.0	1000.0	0.9804947171720192	281.8360126000189	0.9981203000061214
158	242.13875410001492	stim	2		50	surprise	0.05	-1.0	1000.0	0.9804947171720192	282.834132900025	0.49995729999500327
159	242.63871140000992	stim	0		0	surprise	0.05	-1.0	1000.0	0.9804947171720192	283.33409020002	0.002452599990647286
159	242.64116400000057	stim	1		100	surprise	0.05	-1.0	1000.0	0.9804947171720192	283.33654280001065	0.9974763999925926
159	243.63864039999316	stim	2		50	surprise	0.05	-1.0	1000.0	0.9804947171720192	284.33401920000324	0.4998319000005722
160	244.13847229999374	stim	0		0	surprise	0.05	-1.0	1000.0	0.9804947171720192	284.8338511000038	0.0021370000031311065
160	244.14060929999687	stim	1		100	surprise	0.05	-1.0	1000.0	0.9804947171720192	284.83598810000694	0.9980743000051007
160	245.13868360000197	stim	2		50	surprise	0.05	-1.0	1000.0	0.9804947171720192	285.83406240001204	0.5006876999977976
161	245.63937129999977	stim	0		0	surprise	0.05	-1.0	1000.0	0.9804947171720192	286.33475010000984	0.002090399997541681
161	245.6414616999973	stim	1		100	surprise	0.05	-1.0	1000.0	0.9804947171720192	286.3368405000074	0.9972367000009399
161	246.63869839999825	stim	2		50	surprise	0.05	-1.0	1000.0	0.9804947171720192	287.3340772000083	0.49895410001045093
162	247.1376525000087	stim	0		0	surprise	0.05	-1.0	2000.0	1.0	287.8330313000188	0.0019653000053949654
162	247.1396178000141	stim	1		100	surprise	0.05	-1.0	2000.0	1.0	287.83499660002417	0.9991938000021037
162	248.1388116000162	stim	2		50	surprise	0.05	-1.0	2000.0	1.0	288.8341904000263	0.4989707999920938
163	248.6377824000083	stim	0		0	surprise	0.05	-1.0	1000.0	0.9804947171720192	289.33316120001837	0.001976600004127249
163	248.63975900001242	stim	1		100	surprise	0.05	-1.0	1000.0	0.9804947171720192	289.3351378000225	0.9982654000050388
163	249.63802440001746	stim	2		50	surprise	0.05	-1.0	1000.0	0.9804947171720192	290.33340320002753	0.5000574000005145
164	250.13808180001797	stim	0		0	surprise	0.05	-1.0	1000.0	0.9804947171720192	290.83346060002805	0.0019865999929606915
164	250.14006840001093	stim	1		100	surprise	0.05	-1.0	1000.0	0.9804947171720192	290.835447200021	0.9979404000041541
164	251.1380088000151	stim	2		50	surprise	0.05	-1.0	1000.0	0.9804947171720192	291.83338760002516	0.5000252999889199
165	251.638034100004	stim	0		0	surprise	0.05	-1.0	1000.0	0.9804947171720192	292.3334129000141	0.0020093999919481575
165	251.64004349999595	stim	1		100	surprise	0.05	-1.0	1000.0	0.9804947171720192	292.33542230000603	0.9986169000039808
165	252.63866039999994	stim	2		50	surprise	0.05	-1.0	1000.0	0.9804947171720192	293.33403920001	0.4989608000032604
166	253.1376212000032	stim	0		0	surprise	0.05	-1.0	2000.0	1.0	293.83300000001327	0.0020831000001635402
166	253.13970430000336	stim	1		100	surprise	0.05	-1.0	2000.0	1.0	293.83508310001343	0.9989436999894679
166	254.13864799999283	stim	2		50	surprise	0.05	-1.0	2000.0	1.0	294.8340268000029	0.5003825000021607
167	254.639030499995	stim	0		0	surprise	0.05	-1.0	1000.0	0.9804947171720192	295.33440930000506	0.002151699998648837
167	254.64118219999364	stim	1		100	surprise	0.05	-1.0	1000.0	0.9804947171720192	295.3365610000037	0.997571500018239
167	255.63875370001188	stim	2		50	surprise	0.05	-1.0	1000.0	0.9804947171720192	296.33413250002195	0.5001735999830998
168	256.138927299995	stim	0		0	surprise	0.05	-1.0	1000.0	0.9804947171720192	296.83430610000505	0.002618600003188476
168	256.14154589999816	stim	1		100	surprise	0.05	-1.0	1000.0	0.9804947171720192	296.83692470000824	0.9974574999941979
168	257.13900339999236	stim	2		50	surprise	0.05	-1.0	1000.0	0.9804947171720192	297.83438220000244	0.5056117000058293
169	257.6446150999982	stim	0		0	surprise	0.05	-1.0	1000.0	0.9804947171720192	298.33999390000827	0.001954400009708479
169	257.6465695000079	stim	1		99	surprise	0.05	-1.0	1000.0	0.9804947171720192	298.341948300018	0.9929433999932371
169	258.63951290000114	stim	2		50	surprise	0.05	-1.0	1000.0	0.9804947171720192	299.3348917000112	0.50045439999667
170	259.1399672999978	stim	0		0	surprise	0.05	-1.0	1000.0	0.9804947171720192	299.8353461000079	0.002388499997323379
170	259.14235579999513	stim	1		100	surprise	0.05	-1.0	1000.0	0.9804947171720192	299.8377346000052	0.9971311000117566
170	260.1394869000069	stim	2		50	surprise	0.05	-1.0	1000.0	0.9804947171720192	300.83486570001696	0.4998541999957524
171	260.63934110000264	stim	0		0	surprise	0.05	-1.0	1000.0	0.9804947171720192	301.3347199000127	0.002289399999426678
171	260.64163050000207	stim	1		100	surprise	0.05	-1.0	1000.0	0.9804947171720192	301.33700930001214	0.9976003000047058
171	261.63923080000677	stim	2		50	surprise	0.05	-1.0	1000.0	0.9804947171720192	302.33460960001685	0.4999844999983907
172	262.13921530000516	stim	0		0	surprise	0.05	-1.0	1000.0	0.9804947171720192	302.83459410001524	0.002264899987494573
172	262.14148019999266	stim	1		100	surprise	0.05	-1.0	1000.0	0.9804947171720192	302.83685900000273	0.9980968000018038
172	263.13957699999446	stim	2		50	surprise	0.05	-1.0	1000.0	0.9804947171720192	303.83495580000454	0.4988236000062898
173	263.63840060000075	stim	0		0	surprise	0.05	-1.0	1000.0	0.9804947171720192	304.3337794000108	0.0023840999929234385
173	263.6407846999937	stim	1		100	surprise	0.05	-1.0	1000.0	0.9804947171720192	304.33616350000375	0.9975114999979269
173	264.6382961999916	stim	2		50	surprise	0.05	-1.0	1000.0	0.9804947171720192	305.3336750000017	0.5001702000154182
174	265.138466400007	stim	0		0	surprise	0.05	-1.0	1000.0	0.9804947171720192	305.8338452000171	0.0023256999847944826
174	265.1407920999918	stim	1		100	surprise	0.05	-1.0	1000.0	0.9804947171720192	305.8361709000019	0.9974238000286277
174	266.13821590002044	stim	2		50	surprise	0.05	-1.0	1000.0	0.9804947171720192	306.8335947000305	0.5000489999947604
175	266.6382649000152	stim	0		0	surprise	0.05	-1.0	1000.0	0.9804947171720192	307.3336437000253	0.0022721999848727137
175	266.6405371000001	stim	1		100	surprise	0.05	-1.0	1000.0	0.9804947171720192	307.33591590001015	0.9979572000156622
175	267.63849430001574	stim	2		50	surprise	0.05	-1.0	1000.0	0.9804947171720192	308.3338731000258	0.5004904999805149
176	268.13898479999625	stim	0		0	surprise	0.05	-1.0	2000.0	1.0	308.8343636000063	0.0022976000036578625
176	268.1412823999999	stim	1		100	surprise	0.05	-1.0	2000.0	1.0	308.83666120001	0.9969092000101227
176	269.13819160001003	stim	2		50	surprise	0.05	-1.0	2000.0	1.0	309.8335704000201	0.49995669999043457
177	269.63814830000047	stim	0		0	surprise	0.05	-1.0	1000.0	0.9804947171720192	310.33352710001054	0.0020260000019334257
177	269.6401743000024	stim	1		100	surprise	0.05	-1.0	1000.0	0.9804947171720192	310.3355531000125	0.9990538000129163
177	270.6392281000153	stim	2		50	surprise	0.05	-1.0	1000.0	0.9804947171720192	311.3346069000254	0.4999799999932293
178	271.13920810000855	stim	0		0	surprise	0.05	-1.0	1000.0	0.9804947171720192	311.8345869000186	0.0022428999945987016
178	271.14145100000314	stim	1		100	surprise	0.05	-1.0	1000.0	0.9804947171720192	311.8368298000132	0.997804200014798
178	272.13925520001794	stim	2		50	surprise	0.05	-1.0	1000.0	0.9804947171720192	312.834634000028	0.500302999978885
179	272.6395581999968	stim	0		0	surprise	0.05	-1.0	2000.0	1.0	313.3349370000069	0.0022811000235378742
179	272.64183930002037	stim	1		100	surprise	0.05	-1.0	2000.0	1.0	313.33721810003044	0.9975279999780469
179	273.6393672999984	stim	2		50	surprise	0.05	-1.0	2000.0	1.0	314.3347461000085	0.5005671000108123
180	274.1399344000092	stim	0		0	surprise	0.05	-1.0	1000.0	0.9804947171720192	314.8353132000193	0.002139899996109307
180	274.14207430000533	stim	1		100	surprise	0.05	-1.0	1000.0	0.9804947171720192	314.8374531000154	0.997371600009501
180	275.13944590001483	stim	2		50	surprise	0.05	-1.0	1000.0	0.9804947171720192	315.8348247000249	0.5001736999838613
181	275.6396195999987	stim	0		0	surprise	0.05	-1.0	1000.0	0.9804947171720192	316.33499840000877	0.0021256000036373734
181	275.64174520000233	stim	1		100	surprise	0.05	-1.0	1000.0	0.9804947171720192	316.3371240000124	0.9977268000075128
181	276.63947200000985	stim	2		50	surprise	0.05	-1.0	1000.0	0.9804947171720192	317.3348508000199	0.49994609999703243
182	277.1394181000069	stim	0		0	surprise	0.05	1.0	2000.0	1.0	317.83479690001695	0.0021788000012747943
182	277.14159690000815	stim	1		100	surprise	0.05	1.0	2000.0	1.0	317.83697570001823	0.9992090000014286
182	278.1408059000096	stim	2		50	surprise	0.05	1.0	2000.0	1.0	318.83618470001966	0.4985725999868009
183	278.6393784999964	stim	0		0	surprise	0.05	1.0	2000.0	1.0	319.33475730000646	0.0023874000180512667
183	278.64176590001443	stim	1		100	surprise	0.05	1.0	2000.0	1.0	319.3371447000245	0.9976400999876205
183	279.63940600000205	stim	2		50	surprise	0.05	1.0	2000.0	1.0	320.33478480001213	0.49899910000385717
184	280.1384051000059	stim	0		0	surprise	0.05	1.0	2000.0	1.0	320.833783900016	0.0021453000081237406
184	280.14055040001404	stim	1		100	surprise	0.05	1.0	2000.0	1.0	320.8359292000241	0.9979188999859616
184	281.1384693	stim	2		50	surprise	0.05	1.0	2000.0	1.0	321.8338481000101	0.5005181000160519
185	281.63898740001605	stim	0		0	surprise	0.05	1.0	2000.0	1.0	322.3343662000261	0.002271099976496771
185	281.64125849999255	stim	1		100	surprise	0.05	1.0	2000.0	1.0	322.3366373000026	0.9980938000080641
185	282.6393523000006	stim	2		50	surprise	0.05	1.0	2000.0	1.0	323.3347311000107	0.4994816000107676
186	283.1388339000114	stim	0		0	surprise	0.05	1.0	2000.0	1.0	323.83421270002145	0.002227299992227927
186	283.1410612000036	stim	1		100	surprise	0.05	1.0	2000.0	1.0	323.8364400000137	0.9978305000113323
186	284.13889170001494	stim	2		50	surprise	0.05	1.0	2000.0	1.0	324.834270500025	0.49991539999609813
187	284.63880710001104	stim	0		0	surprise	0.05	1.0	2000.0	1.0	325.3341859000211	0.002800799993565306
187	284.6416079000046	stim	1		100	surprise	0.05	1.0	2000.0	1.0	325.3369867000147	0.9972800000105053
187	285.6388879000151	stim	2		50	surprise	0.05	1.0	2000.0	1.0	326.3342667000252	0.49957240000367165
188	286.1384603000188	stim	0		0	surprise	0.05	-1.0	1000.0	0.9804947171720192	326.83383910002885	0.0019882999768014997
188	286.1404485999956	stim	1		100	surprise	0.05	-1.0	1000.0	0.9804947171720192	326.83582740000566	0.9990802000102121
188	287.1395288000058	stim	2		50	surprise	0.05	-1.0	1000.0	0.9804947171720192	327.83490760001587	0.5014414000033867
189	287.6409702000092	stim	0		0	surprise	0.05	-1.0	2000.0	1.0	328.33634900001925	0.0024344999983441085
189	287.6434047000075	stim	1		100	surprise	0.05	-1.0	2000.0	1.0	328.3387835000176	0.9961579999944661
189	288.639562700002	stim	2		50	surprise	0.05	-1.0	2000.0	1.0	329.33494150001206	0.49994509998941794
190	289.1395077999914	stim	0		0	surprise	0.05	-1.0	2000.0	1.0	329.8348866000015	0.002331500028958544
190	289.14183930002037	stim	1		100	surprise	0.05	-1.0	2000.0	1.0	329.83721810003044	0.9977725999779068
190	290.1396118999983	stim	2		50	surprise	0.05	-1.0	2000.0	1.0	330.83499070000835	0.49999310000566766
191	290.63960500000394	stim	0		0	surprise	0.05	-1.0	1000.0	0.9804947171720192	331.334983800014	0.002451800013659522
191	290.6420568000176	stim	1		100	surprise	0.05	-1.0	1000.0	0.9804947171720192	331.3374356000277	0.9973744000017177
191	291.6394312000193	stim	2		50	surprise	0.05	-1.0	1000.0	0.9804947171720192	332.3348100000294	0.5002194999833591
192	292.1396507000027	stim	0		0	surprise	0.05	-1.0	1000.0	0.9804947171720192	332.83502950001275	0.002347600006032735
192	292.1419983000087	stim	1		100	surprise	0.05	-1.0	1000.0	0.9804947171720192	332.8373771000188	0.997607400000561
192	293.13960570000927	stim	2		50	surprise	0.05	-1.0	1000.0	0.9804947171720192	333.83498450001935	0.5007096999906935
193	293.64031539999996	stim	0		0	surprise	0.05	-1.0	1000.0	0.9804947171720192	334.33569420001004	0.0024095000117085874
193	293.6427249000117	stim	1		100	surprise	0.05	-1.0	1000.0	0.9804947171720192	334.33810370002175	0.9969232000003103
193	294.639648100012	stim	2		50	surprise	0.05	-1.0	1000.0	0.9804947171720192	335.33502690002206	0.5004468999977689
194	295.14009500000975	stim	0		0	surprise	0.05	-1.0	1000.0	0.9804947171720192	335.8354738000198	0.002285099995788187
194	295.14238010000554	stim	1		100	surprise	0.05	-1.0	1000.0	0.9804947171720192	335.8377589000156	0.9977699999872129
194	296.14015009999275	stim	2		50	surprise	0.05	-1.0	1000.0	0.9804947171720192	336.8355289000028	0.4999365000112448
195	296.640086600004	stim	0		0	surprise	0.05	-1.0	1000.0	0.9804947171720192	337.3354654000141	0.002226600016001612
195	296.64231320002	stim	1		100	surprise	0.05	-1.0	1000.0	0.9804947171720192	337.3376920000301	0.9968167999759316
195	297.63912999999593	stim	2		50	surprise	0.05	-1.0	1000.0	0.9804947171720192	338.334508800006	0.5000847000046633
196	298.1392147000006	stim	0		0	surprise	0.05	-1.0	1000.0	0.9804947171720192	338.83459350001067	0.0025268000026699156
196	298.14174150000326	stim	1		100	surprise	0.05	-1.0	1000.0	0.9804947171720192	338.83712030001334	0.9974630000069737
196	299.13920450001024	stim	2		50	surprise	0.05	-1.0	1000.0	0.9804947171720192	339.8345833000203	0.500586000009207
197	299.63979050001944	stim	0		0	surprise	0.05	-1.0	1000.0	0.9804947171720192	340.3351693000295	0.0025342999724671245
197	299.6423247999919	stim	1		100	surprise	0.05	-1.0	1000.0	0.9804947171720192	340.337703600002	0.9968403000093531
197	300.63916510000126	stim	2		50	surprise	0.05	-1.0	1000.0	0.9804947171720192	341.33454390001134	0.5000007000053301
198	301.1391658000066	stim	0		0	surprise	0.05	-1.0	1000.0	0.9804947171720192	341.83454460001667	0.0022828000073786825
198	301.141448600014	stim	1		100	surprise	0.05	-1.0	1000.0	0.9804947171720192	341.83682740002405	0.9982086999807507
198	302.1396572999947	stim	2		50	surprise	0.05	-1.0	1000.0	0.9804947171720192	342.8350361000048	0.4991945000074338
199	302.63885180000216	stim	0		0	surprise	0.05	-1.0	1000.0	0.9804947171720192	343.33423060001223	0.0024154999991878867
199	302.64126730000135	stim	1		100	surprise	0.05	-1.0	1000.0	0.9804947171720192	343.3366461000114	0.9987971000082325
199	303.6400644000096	stim	2		50	surprise	0.05	-1.0	1000.0	0.9804947171720192	344.33544320001965	0.5001994000049308
200	304.1402638000145	stim	0		0	surprise	0.05	-1.0	1000.0	0.9804947171720192	344.8356426000246	0.0021861999994143844
200	304.1424500000139	stim	1		100	surprise	0.05	-1.0	1000.0	0.9804947171720192	344.837828800024	0.9975613999995403
200	305.14001140001346	stim	2		50	surprise	0.05	-1.0	1000.0	0.9804947171720192	345.83539020002354	0.49995810000109486
201	305.63996950001456	stim	0		0	surprise	0.05	1.0	2000.0	1.0	346.33534830002463	0.002594599995063618
201	305.6425641000096	stim	1		100	surprise	0.05	1.0	2000.0	1.0	346.3379429000197	0.9975010000052862
201	306.6400651000149	stim	2		50	surprise	0.05	1.0	2000.0	1.0	347.335443900025	0.49989669999922626
202	307.13996180001413	stim	0		0	surprise	0.05	1.0	2000.0	1.0	347.8353406000242	0.00245800000266172
202	307.1424198000168	stim	1		100	surprise	0.05	1.0	2000.0	1.0	347.8377986000269	0.9982085999799892
202	308.1406283999968	stim	2		50	surprise	0.05	1.0	2000.0	1.0	348.83600720000686	0.4999406000133604
203	308.64056900001015	stim	0		0	surprise	0.05	1.0	1000.0	0.9804947171720192	349.3359478000202	0.002328200003830716
203	308.642897200014	stim	1		100	surprise	0.05	1.0	1000.0	0.9804947171720192	349.33827600002405	0.9974767999956384
203	309.6403740000096	stim	2		50	surprise	0.05	1.0	1000.0	0.9804947171720192	350.3357528000197	0.5000167999824043
204	310.140390799992	stim	0		0	surprise	0.05	1.0	2000.0	1.0	350.8357696000021	0.00225650001084432
204	310.14264730000286	stim	1		100	surprise	0.05	1.0	2000.0	1.0	350.83802610001294	0.9977554999932181
204	311.1404027999961	stim	2		50	surprise	0.05	1.0	2000.0	1.0	351.83578160000616	0.4998708000057377
205	311.6402736000018	stim	0		0	surprise	0.05	1.0	2000.0	1.0	352.3356524000119	0.0024468000046908855
205	311.6427204000065	stim	1		100	surprise	0.05	1.0	2000.0	1.0	352.3380992000166	0.9977586999884807
205	312.640479099995	stim	2		50	surprise	0.05	1.0	2000.0	1.0	353.33585790000507	0.49986680000438355
206	313.1403458999994	stim	0		0	surprise	0.05	1.0	2000.0	1.0	353.83572470000945	0.0024716000189073384
206	313.1428175000183	stim	1		100	surprise	0.05	1.0	2000.0	1.0	353.83819630002836	0.9975855999800842
206	314.14040309999837	stim	2		50	surprise	0.05	1.0	2000.0	1.0	354.83578190000844	0.4988354000088293
207	314.6392385000072	stim	0		0	surprise	0.05	1.0	2000.0	1.0	355.33461730001727	0.0024256999895442277
207	314.64166419999674	stim	1		100	surprise	0.05	1.0	2000.0	1.0	355.3370430000068	0.9976180999947246
207	315.63928229999146	stim	2		50	surprise	0.05	1.0	2000.0	1.0	356.33466110000154	0.5000359000114258
208	316.1393182000029	stim	0		0	surprise	0.05	-1.0	2000.0	1.0	356.83469700001297	0.0024061000149231404
208	316.1417243000178	stim	1		100	surprise	0.05	-1.0	2000.0	1.0	356.8371031000279	0.9982771999784745
208	317.1400014999963	stim	2		50	surprise	0.05	-1.0	2000.0	1.0	357.83538030000636	0.49980869999853894
209	317.6398101999948	stim	0		0	surprise	0.05	-1.0	1000.0	0.9804947171720192	358.3351890000049	0.0021436000242829323
209	317.6419538000191	stim	1		100	surprise	0.05	-1.0	1000.0	0.9804947171720192	358.3373326000292	0.9977106000005733
209	318.6396644000197	stim	2		50	surprise	0.05	-1.0	1000.0	0.9804947171720192	359.33504320002976	0.49975349998567253
210	319.13941790000536	stim	0		0	surprise	0.05	-1.0	2000.0	1.0	359.83479670001543	0.0023523000127170235
210	319.1417702000181	stim	1		100	surprise	0.05	-1.0	2000.0	1.0	359.83714900002815	0.9979312999930698
210	320.13970150001114	stim	2		50	surprise	0.05	-1.0	2000.0	1.0	360.8350803000212	0.5005898000090383
211	320.6402913000202	stim	0		0	surprise	0.05	-1.0	1000.0	0.9804947171720192	361.33567010003026	0.002299099985975772
211	320.64259040000616	stim	1		100	surprise	0.05	-1.0	1000.0	0.9804947171720192	361.33796920001623	0.9977082000114024
211	321.64029860001756	stim	2		50	surprise	0.05	-1.0	1000.0	0.9804947171720192	362.33567740002763	0.49987279999186285
212	322.1401714000094	stim	0		0	surprise	0.05	-1.0	1000.0	0.9804947171720192	362.8355502000195	0.002326399990124628
212	322.14249779999955	stim	1		100	surprise	0.05	-1.0	1000.0	0.9804947171720192	362.8378766000096	0.9976796999981161
212	323.14017749999766	stim	2		50	surprise	0.05	-1.0	1000.0	0.9804947171720192	363.83555630000774	0.5005134000093676
213	323.64069090000703	stim	0		0	surprise	0.05	-1.0	1000.0	0.9804947171720192	364.3360697000171	0.002413400012301281
213	323.64310430001933	stim	1		100	surprise	0.05	-1.0	1000.0	0.9804947171720192	364.3384831000294	0.9972240999923088
213	324.64032840001164	stim	2		50	surprise	0.05	-1.0	1000.0	0.9804947171720192	365.3357072000217	0.49997829998028465
214	325.1403066999919	stim	0		0	surprise	0.05	-1.0	1000.0	0.9804947171720192	365.835685500002	0.002186700003221631
214	325.14249339999515	stim	1		100	surprise	0.05	-1.0	1000.0	0.9804947171720192	365.8378722000052	0.9979422000178602
214	326.140435600013	stim	2		50	surprise	0.05	-1.0	1000.0	0.9804947171720192	366.8358144000231	0.5001721000007819
215	326.6406077000138	stim	0		0	surprise	0.05	-1.0	2000.0	1.0	367.33598650002386	0.00253060000250116
215	326.6431383000163	stim	1		100	surprise	0.05	-1.0	2000.0	1.0	367.33851710002637	0.9972569999808911
215	327.6403952999972	stim	2		50	surprise	0.05	-1.0	2000.0	1.0	368.33577410000726	0.5005133000086062
216	328.1409086000058	stim	0		0	surprise	0.05	-1.0	2000.0	1.0	368.83628740001586	0.0023019000072963536
216	328.1432105000131	stim	1		100	surprise	0.05	-1.0	2000.0	1.0	368.83858930002316	0.9977434999891557
216	329.14095400000224	stim	2		50	surprise	0.05	-1.0	2000.0	1.0	369.8363328000123	0.49937030000728555
217	329.6403243000095	stim	0		0	surprise	0.05	-1.0	1000.0	0.9804947171720192	370.3357031000196	0.002203000010922551
217	329.64252730002045	stim	1		100	surprise	0.05	-1.0	1000.0	0.9804947171720192	370.3379061000305	0.9975378999952227
217	330.64006520001567	stim	2		50	surprise	0.05	-1.0	1000.0	0.9804947171720192	371.33544400002575	0.4997776999953203
218	331.139842900011	stim	0		0	surprise	0.05	-1.0	1000.0	0.9804947171720192	371.83522170002107	0.0020687000069301575
218	331.1419116000179	stim	1		100	surprise	0.05	-1.0	1000.0	0.9804947171720192	371.837290400028	0.9987437999807298
218	332.14065539999865	stim	2		50	surprise	0.05	-1.0	1000.0	0.9804947171720192	372.8360342000087	0.49914880000869744
219	332.63980420000735	stim	0		0	surprise	0.05	-1.0	1000.0	0.9804947171720192	373.3351830000174	0.002294400008395314
219	332.64209860001574	stim	1		100	surprise	0.05	-1.0	1000.0	0.9804947171720192	373.3374774000258	0.9977302000042982
219	333.63982880002004	stim	2		50	surprise	0.05	-1.0	1000.0	0.9804947171720192	374.3352076000301	0.5003302999830339
220	334.1401591000031	stim	0		0	surprise	0.05	-1.0	1000.0	0.9804947171720192	374.83553790001315	0.002317400008905679
220	334.142476500012	stim	1		100	surprise	0.05	-1.0	1000.0	0.9804947171720192	374.83785530002206	0.997245100006694
220	335.1397216000187	stim	2		50	surprise	0.05	-1.0	1000.0	0.9804947171720192	375.83510040002875	0.5003089999954682
221	335.64003060001414	stim	0		0	surprise	0.05	-1.0	1000.0	0.9804947171720192	376.3354094000242	0.002587800001492724
221	335.64261840001564	stim	1		100	surprise	0.05	-1.0	1000.0	0.9804947171720192	376.3379972000257	0.9976754999952391
221	336.6402939000109	stim	2		50	surprise	0.05	-1.0	1000.0	0.9804947171720192	377.33567270002095	0.5003584999940358
222	337.1406524000049	stim	0		0	surprise	0.05	1.0	2000.0	1.0	377.836031200015	0.0023785000084899366
222	337.1430309000134	stim	1		100	surprise	0.05	1.0	2000.0	1.0	377.8384097000235	0.9980008999991696
222	338.14103180001257	stim	2		50	surprise	0.05	1.0	2000.0	1.0	378.83641060002265	0.49971229999209754
223	338.64074410000467	stim	0		0	surprise	0.05	1.0	1000.0	0.9804947171720192	379.33612290001474	0.0025696000084280968
223	338.6433137000131	stim	1		100	surprise	0.05	1.0	1000.0	0.9804947171720192	379.33869250002317	0.997191100002965
223	339.64050480001606	stim	2		50	surprise	0.05	1.0	1000.0	0.9804947171720192	380.33588360002614	0.5000398999836762
224	340.14054469999974	stim	0		0	surprise	0.05	1.0	2000.0	1.0	380.8359235000098	0.0024842999991960824
224	340.14302899999893	stim	1		100	surprise	0.05	1.0	2000.0	1.0	380.838407800009	0.9977062999969348
224	341.14073529999587	stim	2		50	surprise	0.05	1.0	2000.0	1.0	381.83611410000594	0.5000710000167601
225	341.6408063000126	stim	0		0	surprise	0.05	-1.0	1000.0	0.9804947171720192	382.3361851000227	0.002582999994046986
225	341.6433893000067	stim	1		100	surprise	0.05	-1.0	1000.0	0.9804947171720192	382.33876810001675	0.9986107999866363
225	342.6420000999933	stim	2		50	surprise	0.05	-1.0	1000.0	0.9804947171720192	383.3373789000034	0.4991193000169005
226	343.1411194000102	stim	0		0	surprise	0.05	-1.0	1000.0	0.9804947171720192	383.8364982000203	0.0021379999816417694
226	343.14325739999185	stim	1		100	surprise	0.05	-1.0	1000.0	0.9804947171720192	383.83863620000193	0.9977883000101428
226	344.141045700002	stim	2		50	surprise	0.05	-1.0	1000.0	0.9804947171720192	384.8364245000121	0.5009142000053544
227	344.64195990000735	stim	0		0	surprise	0.05	-1.0	1000.0	0.9804947171720192	385.3373387000174	0.0024311000015586615
227	344.6443910000089	stim	1		100	surprise	0.05	-1.0	1000.0	0.9804947171720192	385.339769800019	0.9966269999858923
227	345.6410179999948	stim	2		50	surprise	0.05	-1.0	1000.0	0.9804947171720192	386.3363968000049	0.500067900022259
228	346.14108590001706	stim	0		0	surprise	0.05	-1.0	2000.0	1.0	386.83646470002714	0.00245349999750033
228	346.14353940001456	stim	1		100	surprise	0.05	-1.0	2000.0	1.0	386.83891820002464	0.9967159999941941
228	347.14025540000875	stim	2		50	surprise	0.05	-1.0	2000.0	1.0	387.83563420001883	0.49974379999912344
229	347.6399992000079	stim	0		0	surprise	0.05	-1.0	1000.0	0.9804947171720192	388.33537800001795	0.002079300000332296
229	347.6420785000082	stim	1		100	surprise	0.05	-1.0	1000.0	0.9804947171720192	388.3374573000183	0.9980300999886822
229	348.6401085999969	stim	2		50	surprise	0.05	-1.0	1000.0	0.9804947171720192	389.33548740000697	0.5007234000077005
230	349.1408320000046	stim	0		0	surprise	0.05	-1.0	1000.0	0.9804947171720192	389.83621080001467	0.0023215000110212713
230	349.1431535000156	stim	1		100	surprise	0.05	-1.0	1000.0	0.9804947171720192	389.8385323000257	0.9968094999785535
230	350.13996299999417	stim	2		50	surprise	0.05	-1.0	1000.0	0.9804947171720192	390.83534180000424	0.5005014000053052
231	350.6404643999995	stim	0		0	surprise	0.05	-1.0	1000.0	0.9804947171720192	391.33584320000955	0.002135899994755164
231	350.6426002999942	stim	1		100	surprise	0.05	-1.0	1000.0	0.9804947171720192	391.3379791000043	0.9979982000077143
231	351.64059850000194	stim	2		50	surprise	0.05	-1.0	1000.0	0.9804947171720192	392.335977300012	0.4994547000096645
232	352.1400532000116	stim	0		0	surprise	0.05	-1.0	1000.0	0.9804947171720192	392.8354320000217	0.0024904999881982803
232	352.1425436999998	stim	1		100	surprise	0.05	-1.0	1000.0	0.9804947171720192	392.8379225000099	0.9981131000095047
232	353.1406568000093	stim	2		50	surprise	0.05	-1.0	1000.0	0.9804947171720192	393.8360356000194	0.4995805000071414
233	353.64023730001645	stim	0		0	surprise	0.05	-1.0	1000.0	0.9804947171720192	394.3356161000265	0.0023632999800611287
233	353.6426005999965	stim	1		100	surprise	0.05	-1.0	1000.0	0.9804947171720192	394.3379794000066	0.9983669000212103
233	354.6409675000177	stim	2		50	surprise	0.05	-1.0	1000.0	0.9804947171720192	395.3363463000278	0.5000452999956906
234	355.1410128000134	stim	0		0	surprise	0.05	-1.0	1000.0	0.9804947171720192	395.8363916000235	0.0024462000001221895
234	355.14345900001354	stim	1		100	surprise	0.05	-1.0	1000.0	0.9804947171720192	395.8388378000236	0.9975348000007216
234	356.14099380001426	stim	2		50	surprise	0.05	-1.0	1000.0	0.9804947171720192	396.83637260002433	0.4999893000058364
235	356.6409831000201	stim	0		0	surprise	0.05	-1.0	1000.0	0.9804947171720192	397.33636190003017	0.002233499981230125
235	356.6432166000013	stim	1		100	surprise	0.05	-1.0	1000.0	0.9804947171720192	397.3385954000114	0.998147100006463
235	357.6413637000078	stim	2		50	surprise	0.05	-1.0	1000.0	0.9804947171720192	398.33674250001786	0.4998073999886401
236	358.1411710999964	stim	0		0	surprise	0.05	-1.0	1000.0	0.9804947171720192	398.8365499000065	0.0026562999992165715
236	358.14382739999564	stim	1		100	surprise	0.05	-1.0	1000.0	0.9804947171720192	398.8392062000057	0.9974621000001207
236	359.14128949999576	stim	2		50	surprise	0.05	-1.0	1000.0	0.9804947171720192	399.83666830000584	0.500187099998584
237	359.64147659999435	stim	0		0	surprise	0.05	-1.0	2000.0	1.0	400.3368554000044	0.0022942000068724155
237	359.6437708000012	stim	1		100	surprise	0.05	-1.0	2000.0	1.0	400.3391496000113	0.9975895000097807
237	360.641360300011	stim	2		50	surprise	0.05	-1.0	2000.0	1.0	401.3367391000211	0.49992040000506677
238	361.14128070001607	stim	0		0	surprise	0.05	-1.0	1000.0	0.9804947171720192	401.83665950002614	0.0022869999811518937
238	361.1435676999972	stim	1		100	surprise	0.05	-1.0	1000.0	0.9804947171720192	401.8389465000073	0.9980752000119537
238	362.1416429000092	stim	2		50	surprise	0.05	-1.0	1000.0	0.9804947171720192	402.83702170001925	0.4993857000081334
239	362.6410286000173	stim	0		0	surprise	0.05	-1.0	1000.0	0.9804947171720192	403.3364074000274	0.002166399994166568
239	362.6431950000115	stim	1		100	surprise	0.05	-1.0	1000.0	0.9804947171720192	403.33857380002155	0.9986769999959506
239	363.6418720000074	stim	2		50	surprise	0.05	-1.0	1000.0	0.9804947171720192	404.3372508000175	0.49891749999369495
240	364.1407895000011	stim	0		0	surprise	0.05	-1.0	1000.0	0.9804947171720192	404.8361683000112	0.0025508000107947737
240	364.1433403000119	stim	1		100	surprise	0.05	-1.0	1000.0	0.9804947171720192	404.838719100022	0.9969046000041999
240	365.1402449000161	stim	2		50	surprise	0.05	-1.0	1000.0	0.9804947171720192	405.8356237000262	0.5004374999844003
241	365.6406824000005	stim	0		0	surprise	0.05	-1.0	1000.0	0.9804947171720192	406.3360612000106	0.0021850999910384417
241	365.64286749999155	stim	1		100	surprise	0.05	-1.0	1000.0	0.9804947171720192	406.33824630000163	0.9979806000192184
241	366.64084810001077	stim	2		50	surprise	0.05	-1.0	1000.0	0.9804947171720192	407.33622690002085	0.4999991999939084
242	367.1408473000047	stim	0		0	surprise	0.05	-1.0	1000.0	0.9804947171720192	407.83622610001476	0.00221350000356324
242	367.14306080000824	stim	1		100	surprise	0.05	-1.0	1000.0	0.9804947171720192	407.8384396000183	0.9975030999921728
242	368.1405639000004	stim	2		50	surprise	0.05	-1.0	1000.0	0.9804947171720192	408.8359427000105	0.5002559999993537
243	368.64081989999977	stim	0		0	surprise	0.05	-1.0	1000.0	0.9804947171720192	409.33619870000985	0.002364100015256554
243	368.643184000015	stim	1		100	surprise	0.05	-1.0	1000.0	0.9804947171720192	409.3385628000251	0.997378200001549
243	369.6405622000166	stim	2		50	surprise	0.05	-1.0	1000.0	0.9804947171720192	410.33594100002665	0.5002272999845445
244	370.1407895000011	stim	0		0	surprise	0.05	-1.0	1000.0	0.9804947171720192	410.8361683000112	0.002398600016022101
244	370.14318810001714	stim	1		100	surprise	0.05	-1.0	1000.0	0.9804947171720192	410.8385669000272	0.9982214999909047
244	371.14140960000805	stim	2		50	surprise	0.05	-1.0	1000.0	0.9804947171720192	411.8367884000181	0.500162399985129
245	371.6415719999932	stim	0		0	surprise	0.05	-1.0	1000.0	0.9804947171720192	412.33695080000325	0.0022471000265795738
245	371.64381910001975	stim	1		100	surprise	0.05	-1.0	1000.0	0.9804947171720192	412.33919790002983	0.9974909999873489
245	372.6413101000071	stim	2		50	surprise	0.05	-1.0	1000.0	0.9804947171720192	413.3366889000172	0.5000743999844417
246	373.14138449999155	stim	0		0	surprise	0.05	-1.0	1000.0	0.9804947171720192	413.8367633000016	0.0021468000195454806
246	373.1435313000111	stim	1		100	surprise	0.05	-1.0	1000.0	0.9804947171720192	413.83891010002117	0.9978182000049856
246	374.1413495000161	stim	2		50	surprise	0.05	-1.0	1000.0	0.9804947171720192	414.83672830002615	0.5001121999812312
247	374.6414616999973	stim	0		0	surprise	0.05	-1.0	1000.0	0.9804947171720192	415.3368405000074	0.002207800018368289
247	374.6436695000157	stim	1		100	surprise	0.05	-1.0	1000.0	0.9804947171720192	415.33904830002575	0.9984981000015978
247	375.6421676000173	stim	2		50	surprise	0.05	-1.0	1000.0	0.9804947171720192	416.33754640002735	0.4999453999917023
248	376.142113000009	stim	0		0	surprise	0.05	-1.0	1000.0	0.9804947171720192	416.83749180001905	0.0021383999846875668
248	376.14425139999366	stim	1		100	surprise	0.05	-1.0	1000.0	0.9804947171720192	416.83963020000374	0.9980473000032362
248	377.1422986999969	stim	2		50	surprise	0.05	-1.0	1000.0	0.9804947171720192	417.837677500007	0.49962310001137666
249	377.6419218000083	stim	0		0	surprise	0.05	-1.0	1000.0	0.9804947171720192	418.33730060001835	0.0025969999842345715
249	377.6445187999925	stim	1		100	surprise	0.05	-1.0	1000.0	0.9804947171720192	418.3398976000026	0.9976053000136744
249	378.6421241000062	stim	2		50	surprise	0.05	-1.0	1000.0	0.9804947171720192	419.33750290001626	0.49967910000123084
250	379.1418032000074	stim	0		0	surprise	0.05	-1.0	1000.0	0.9804947171720192	419.8371820000175	0.002219699992565438
250	379.1440229	stim	1		100	surprise	0.05	-1.0	1000.0	0.9804947171720192	419.83940170001006	0.9978607000084594
250	380.14188360000844	stim	2		50	surprise	0.05	-1.0	1000.0	0.9804947171720192	420.8372624000185	0.4990682000061497
251	380.6409518000146	stim	0		0	surprise	0.05	-1.0	1000.0	0.9804947171720192	421.33633060002467	0.002249199984362349
251	380.64320099999895	stim	1		100	surprise	0.05	-1.0	1000.0	0.9804947171720192	421.33857980000903	0.9976059000182431
251	381.6408069000172	stim	2		50	surprise	0.05	-1.0	1000.0	0.9804947171720192	422.3361857000273	0.5000639999925625
252	382.14087090000976	stim	0		0	surprise	0.05	-1.0	1000.0	0.9804947171720192	422.83624970001983	0.0022875999857205898
252	382.1431584999955	stim	1		100	surprise	0.05	-1.0	1000.0	0.9804947171720192	422.83853730000556	0.9977093000197783
252	383.14086780001526	stim	2		50	surprise	0.05	-1.0	1000.0	0.9804947171720192	423.83624660002533	0.5007187000010163
253	383.6415865000163	stim	0		0	surprise	0.05	-1.0	1000.0	0.9804947171720192	424.33696530002635	0.0022495999874081463
253	383.6438361000037	stim	1		100	surprise	0.05	-1.0	1000.0	0.9804947171720192	424.33921490001376	0.9969383999996353
253	384.6407745000033	stim	2		50	surprise	0.05	-1.0	1000.0	0.9804947171720192	425.3361533000134	0.5001428000105079
254	385.1409173000138	stim	0		0	surprise	0.05	-1.0	1000.0	0.9804947171720192	425.8362961000239	0.0020216999982949346
254	385.1429390000121	stim	1		100	surprise	0.05	-1.0	1000.0	0.9804947171720192	425.8383178000222	0.99786169998697
254	386.1408006999991	stim	2		50	surprise	0.05	-1.0	1000.0	0.9804947171720192	426.83617950000917	0.5005671000108123
255	386.6413678000099	stim	0		0	surprise	0.05	-1.0	1000.0	0.9804947171720192	427.33674660002	0.002449999999953434
255	386.64381780000986	stim	1		100	surprise	0.05	-1.0	1000.0	0.9804947171720192	427.33919660001993	0.9982045000069775
255	387.64202230001683	stim	2		50	surprise	0.05	-1.0	1000.0	0.9804947171720192	428.3374011000269	0.49983369998517446
256	388.141856000002	stim	0		0	surprise	0.05	-1.0	1000.0	0.9804947171720192	428.8372348000121	0.002279500011354685
256	388.14413550001336	stim	1		100	surprise	0.05	-1.0	1000.0	0.9804947171720192	428.83951430002344	0.9977012999879662
256	389.14183680000133	stim	2		50	surprise	0.05	-1.0	1000.0	0.9804947171720192	429.8372156000114	0.5000385000021197
257	389.64187530000345	stim	0		0	surprise	0.05	1.0	2000.0	1.0	430.3372541000135	0.002297400002134964
257	389.6441727000056	stim	1		100	surprise	0.05	1.0	2000.0	1.0	430.33955150001566	0.9978484000021126
257	390.6420211000077	stim	2		50	surprise	0.05	1.0	2000.0	1.0	431.3373999000178	0.49994360000710003
258	391.1419647000148	stim	0		0	surprise	0.05	1.0	1000.0	0.9804947171720192	431.8373435000249	0.0024978999863378704
258	391.14446260000113	stim	1		100	surprise	0.05	1.0	1000.0	0.9804947171720192	431.8398414000112	0.9972819999966305
258	392.14174459999776	stim	2		50	surprise	0.05	1.0	1000.0	0.9804947171720192	432.83712340000784	0.5005436000064947
259	392.64228820000426	stim	0		0	surprise	0.05	1.0	2000.0	1.0	433.33766700001433	0.0024924000026658177
259	392.6447806000069	stim	1		100	surprise	0.05	1.0	2000.0	1.0	433.340159400017	0.9972867000033148
259	393.64206730001024	stim	2		50	surprise	0.05	1.0	2000.0	1.0	434.3374461000203	0.5006930000090506
260	394.1427603000193	stim	0		0	surprise	0.05	1.0	2000.0	1.0	434.83813910002937	0.002323900000192225
260	394.1450842000195	stim	1		100	surprise	0.05	1.0	2000.0	1.0	434.84046300002956	0.9970157999778166
260	395.1420999999973	stim	2		50	surprise	0.05	1.0	2000.0	1.0	435.8374788000074	0.5001381000038236
261	395.6422381000011	stim	0		0	surprise	0.05	1.0	2000.0	1.0	436.3376169000112	0.002204100019298494
261	395.6444422000204	stim	1		100	surprise	0.05	1.0	2000.0	1.0	436.3398210000305	0.9984161999891512
261	396.6428584000096	stim	2		50	surprise	0.05	1.0	2000.0	1.0	437.33823720001965	0.49948999998741783
262	397.142348399997	stim	0		0	surprise	0.05	1.0	2000.0	1.0	437.83772720000707	0.0022493000142276287
262	397.1445977000112	stim	1		100	surprise	0.05	1.0	2000.0	1.0	437.8399765000213	0.99644139999873
262	398.14103910000995	stim	2		50	surprise	0.05	1.0	2000.0	1.0	438.83641790002	0.5005302999925334
263	398.6415694000025	stim	0		0	surprise	0.05	1.0	2000.0	1.0	439.33694820001256	0.003948900004616007
263	398.6455183000071	stim	1		100	surprise	0.05	1.0	2000.0	1.0	439.3408971000172	0.9955122999963351
263	399.64103060000343	stim	2		50	surprise	0.05	1.0	2000.0	1.0	440.3364094000135	0.500417400005972
264	400.1414480000094	stim	0		0	surprise	0.05	1.0	1000.0	0.9804947171720192	440.8368268000195	0.002205500000854954
264	400.14365350001026	stim	1		100	surprise	0.05	1.0	1000.0	0.9804947171720192	440.83903230002034	0.9980090000026394
264	401.1416625000129	stim	2		50	surprise	0.05	1.0	1000.0	0.9804947171720192	441.837041300023	0.4994003000028897
265	401.6410628000158	stim	0		0	surprise	0.05	1.0	2000.0	1.0	442.33644160002586	0.0020589999912772328
265	401.64312180000707	stim	1		100	surprise	0.05	1.0	2000.0	1.0	442.33850060001714	0.9988994000013918
265	402.64202120000846	stim	2		50	surprise	0.05	1.0	2000.0	1.0	443.33740000001853	0.4996167999925092
266	403.14163800000097	stim	0		0	surprise	0.05	1.0	2000.0	1.0	443.83701680001104	0.0022606000129599124
266	403.1438986000139	stim	1		100	surprise	0.05	1.0	2000.0	1.0	443.839277400024	0.9981047000037506
266	404.1420033000177	stim	2		50	surprise	0.05	1.0	2000.0	1.0	444.83738210002775	0.4999834999907762
267	404.64198680000845	stim	0		0	surprise	0.05	1.0	2000.0	1.0	445.33736560001853	0.0021420999837573618
267	404.6441288999922	stim	1		100	surprise	0.05	1.0	2000.0	1.0	445.3395077000023	0.9978887000179384
267	405.64201760001015	stim	2		50	surprise	0.05	1.0	2000.0	1.0	446.3373964000202	0.5001054999884218
268	406.14212309999857	stim	0		0	surprise	0.05	1.0	2000.0	1.0	446.83750190000865	0.0024408000172115862
268	406.1445639000158	stim	1		100	surprise	0.05	1.0	2000.0	1.0	446.83994270002586	0.9983005999820307
268	407.1428644999978	stim	2		50	surprise	0.05	1.0	2000.0	1.0	447.8382433000079	0.4993988000205718
269	407.6422633000184	stim	0		0	surprise	0.05	1.0	2000.0	1.0	448.33764210002846	0.0022458999883383512
269	407.6445092000067	stim	1		100	surprise	0.05	1.0	2000.0	1.0	448.3398880000168	0.9975092000095174
269	408.64201840001624	stim	2		50	surprise	0.05	1.0	2000.0	1.0	449.3373972000263	0.5002622999891173
270	409.14228070000536	stim	0		0	surprise	0.05	1.0	2000.0	1.0	449.83765950001543	0.0023686999920755625
270	409.14464939999743	stim	1		100	surprise	0.05	1.0	2000.0	1.0	449.8400282000075	0.998315700009698
270	410.14296510000713	stim	2		50	surprise	0.05	1.0	2000.0	1.0	450.8383439000172	0.49990429999888875
271	410.642869400006	stim	0		0	surprise	0.05	1.0	2000.0	1.0	451.3382482000161	0.0021875000093132257
271	410.64505690001533	stim	1		100	surprise	0.05	1.0	2000.0	1.0	451.3404357000254	0.9981799999950454
271	411.6432369000104	stim	2		50	surprise	0.05	1.0	2000.0	1.0	452.33861570002045	0.49966739999945275
272	412.14290430000983	stim	0		0	surprise	0.05	1.0	2000.0	1.0	452.8382831000199	0.002301700005773455
272	412.1452060000156	stim	1		100	surprise	0.05	1.0	2000.0	1.0	452.8405848000257	0.9977497999789193
272	413.1429557999945	stim	2		50	surprise	0.05	1.0	2000.0	1.0	453.8383346000046	0.4997369000047911
273	413.6426926999993	stim	0		0	surprise	0.05	1.0	2000.0	1.0	454.3380715000094	0.002337100013392046
273	413.6450298000127	stim	1		100	surprise	0.05	1.0	2000.0	1.0	454.3404086000228	0.9967311999935191
273	414.6417610000062	stim	2		50	surprise	0.05	1.0	2000.0	1.0	455.3371398000163	0.4999455999932252
274	415.14170659999945	stim	0		0	surprise	0.05	1.0	2000.0	1.0	455.8370854000095	0.002154999994672835
274	415.1438615999941	stim	1		100	surprise	0.05	1.0	2000.0	1.0	455.8392404000042	0.9978197000164073
274	416.14168130001053	stim	2		50	surprise	0.05	1.0	2000.0	1.0	456.8370601000206	0.4996305999811739
275	416.6413118999917	stim	0		0	surprise	0.05	1.0	2000.0	1.0	457.3366907000018	0.0020163000153843313
275	416.6433282000071	stim	1		100	surprise	0.05	1.0	2000.0	1.0	457.33870700001717	0.9988631999876816
275	417.6421913999948	stim	2		50	surprise	0.05	1.0	2000.0	1.0	458.33757020000485	0.4993211000110023
276	418.1415125000058	stim	0		0	surprise	0.05	1.0	2000.0	1.0	458.83689130001585	0.0020690000092145056
276	418.143581500015	stim	1		100	surprise	0.05	1.0	2000.0	1.0	458.83896030002506	0.9981459999980871
276	419.1417275000131	stim	2		50	surprise	0.05	1.0	2000.0	1.0	459.83710630002315	0.4996568000060506
277	419.6413843000191	stim	0		0	surprise	0.05	1.0	2000.0	1.0	460.3367631000292	0.0020210999937262386
277	419.64340540001285	stim	1		100	surprise	0.05	1.0	2000.0	1.0	460.3387842000229	0.999044900003355
277	420.6424503000162	stim	2		50	surprise	0.05	1.0	2000.0	1.0	461.3378291000263	0.4998998999944888
278	421.1423502000107	stim	0		0	surprise	0.05	1.0	2000.0	1.0	461.8377290000208	0.0022081999923102558
278	421.144558400003	stim	1		100	surprise	0.05	1.0	2000.0	1.0	461.8399372000131	0.9982711999909952
278	422.142829599994	stim	2		50	surprise	0.05	1.0	2000.0	1.0	462.8382084000041	0.4994734000065364
279	422.64230300000054	stim	0		0	surprise	0.05	-1.0	1000.0	0.9804947171720192	463.3376818000106	0.0023533999919891357
279	422.6446563999925	stim	1		100	surprise	0.05	-1.0	1000.0	0.9804947171720192	463.3400352000026	0.9978990000090562
279	423.6425554000016	stim	2		50	surprise	0.05	-1.0	1000.0	0.9804947171720192	464.33793420001166	0.5001183999993373
280	424.1426738000009	stim	0		0	surprise	0.05	-1.0	1000.0	0.9804947171720192	464.838052600011	0.002591900003608316
280	424.14526570000453	stim	1		100	surprise	0.05	-1.0	1000.0	0.9804947171720192	464.8406445000146	0.997338299988769
280	425.1426039999933	stim	2		50	surprise	0.05	-1.0	1000.0	0.9804947171720192	465.8379828000034	0.5005499000253621
281	425.64315390001866	stim	0		0	surprise	0.05	-1.0	1000.0	0.9804947171720192	466.33853270002874	0.0021791999752167612
281	425.6453330999939	stim	1		100	surprise	0.05	-1.0	1000.0	0.9804947171720192	466.34071190000395	0.9979460000176914
281	426.64327910001157	stim	2		50	surprise	0.05	-1.0	1000.0	0.9804947171720192	467.33865790002164	0.49970280000707135
282	427.14298190001864	stim	0		0	surprise	0.05	-1.0	1000.0	0.9804947171720192	467.8383607000287	0.003050999977858737
282	427.1460328999965	stim	1		100	surprise	0.05	-1.0	1000.0	0.9804947171720192	467.8414117000066	0.9967979000066407
282	428.14283080000314	stim	2		50	surprise	0.05	-1.0	1000.0	0.9804947171720192	468.8382096000132	0.5007330999942496
283	428.6435638999974	stim	0		0	surprise	0.05	-1.0	1000.0	0.9804947171720192	469.33894270000746	0.002563400019425899
283	428.6461273000168	stim	1		100	surprise	0.05	-1.0	1000.0	0.9804947171720192	469.3415061000269	0.996823299996322
283	429.64295060001314	stim	2		50	surprise	0.05	-1.0	1000.0	0.9804947171720192	470.3383294000232	0.5001469999842811
284	430.1430975999974	stim	0		0	surprise	0.05	-1.0	1000.0	0.9804947171720192	470.8384764000075	0.0025997000047937036
284	430.1456973000022	stim	1		100	surprise	0.05	-1.0	1000.0	0.9804947171720192	470.8410761000123	0.9964513000159059
284	431.1421486000181	stim	2		50	surprise	0.05	-1.0	1000.0	0.9804947171720192	471.8375274000282	0.49984599999152124
285	431.64199460000964	stim	0		0	surprise	0.05	-1.0	1000.0	0.9804947171720192	472.3373734000197	0.002332200005184859
285	431.6443268000148	stim	1		100	surprise	0.05	-1.0	1000.0	0.9804947171720192	472.3397056000249	0.9975388000020757
285	432.6418656000169	stim	2		50	surprise	0.05	-1.0	1000.0	0.9804947171720192	473.337244400027	0.5003856999974232
286	433.1422513000143	stim	0		0	surprise	0.05	-1.0	1000.0	0.9804947171720192	473.8376301000244	0.0021641000057570636
286	433.1444154000201	stim	1		100	surprise	0.05	-1.0	1000.0	0.9804947171720192	473.83979420003016	0.9974826999823563
286	434.14189810000244	stim	2		50	surprise	0.05	-1.0	1000.0	0.9804947171720192	474.8372769000125	0.49984720000065863
287	434.6417453000031	stim	0		0	surprise	0.05	-1.0	1000.0	0.9804947171720192	475.33712410001317	0.002196100016590208
287	434.6439414000197	stim	1		100	surprise	0.05	-1.0	1000.0	0.9804947171720192	475.33932020002976	0.9986327999795321
287	435.6425741999992	stim	2		50	surprise	0.05	-1.0	1000.0	0.9804947171720192	476.3379530000093	0.4998102000099607
288	436.1423844000092	stim	0		0	surprise	0.05	-1.0	1000.0	0.9804947171720192	476.83776320001925	0.002132599998731166
288	436.1445170000079	stim	1		100	surprise	0.05	-1.0	1000.0	0.9804947171720192	476.839895800018	0.9977176999964286
288	437.14223470000434	stim	2		50	surprise	0.05	-1.0	1000.0	0.9804947171720192	477.8376135000144	0.5006292999896687
289	437.642863999994	stim	0		0	surprise	0.05	-1.0	1000.0	0.9804947171720192	478.3382428000041	0.0023268000222742558
289	437.6451908000163	stim	1		100	surprise	0.05	-1.0	1000.0	0.9804947171720192	478.34056960002636	0.9976290999911726
289	438.64281990000745	stim	2		50	surprise	0.05	-1.0	1000.0	0.9804947171720192	479.33819870001753	0.5000533999991603
290	439.1428733000066	stim	0		0	surprise	0.05	-1.0	2000.0	1.0	479.8382521000167	0.0022047999955248088
290	439.14507810000214	stim	1		100	surprise	0.05	-1.0	2000.0	1.0	479.8404569000122	0.9976991000003181
290	440.14277720000246	stim	2		50	surprise	0.05	-1.0	2000.0	1.0	480.83815600001253	0.5001599999959581
291	440.6429371999984	stim	0		0	surprise	0.05	-1.0	1000.0	0.9804947171720192	481.3383160000085	0.002511200000299141
291	440.6454483999987	stim	1		100	surprise	0.05	-1.0	1000.0	0.9804947171720192	481.3408272000088	0.9976912999991328
291	441.64313969999785	stim	2		50	surprise	0.05	-1.0	1000.0	0.9804947171720192	482.3385185000079	0.4997256000060588
292	442.1428653000039	stim	0		0	surprise	0.05	-1.0	1000.0	0.9804947171720192	482.838244100014	0.0023148999898694456
292	442.1451801999938	stim	1		100	surprise	0.05	-1.0	1000.0	0.9804947171720192	482.84055900000385	0.997898300003726
292	443.1430784999975	stim	2		50	surprise	0.05	-1.0	1000.0	0.9804947171720192	483.8384573000076	0.5003366000019014
293	443.6434150999994	stim	0		0	surprise	0.05	-1.0	1000.0	0.9804947171720192	484.3387939000095	0.002206900011515245
293	443.6456220000109	stim	1		100	surprise	0.05	-1.0	1000.0	0.9804947171720192	484.341000800021	0.9974422999948729
293	444.6430643000058	stim	2		50	surprise	0.05	-1.0	1000.0	0.9804947171720192	485.33844310001587	0.500133099994855
294	445.14319740000064	stim	0		0	surprise	0.05	-1.0	1000.0	0.9804947171720192	485.8385762000107	0.002350399998249486
294	445.1455477999989	stim	1		100	surprise	0.05	-1.0	1000.0	0.9804947171720192	485.84092660000897	0.9985557000036351
294	446.14410350000253	stim	2		50	surprise	0.05	-1.0	1000.0	0.9804947171720192	486.8394823000126	0.4992966999998316
295	446.64340020000236	stim	0		0	surprise	0.05	-1.0	1000.0	0.9804947171720192	487.33877900001244	0.0024191999982576817
295	446.6458194000006	stim	1		100	surprise	0.05	-1.0	1000.0	0.9804947171720192	487.3411982000107	0.9966975999996066
295	447.6425170000002	stim	2		50	surprise	0.05	-1.0	1000.0	0.9804947171720192	488.3378958000103	0.5001982999965549
296	448.1427152999968	stim	0		0	surprise	0.05	-1.0	1000.0	0.9804947171720192	488.83809410000686	0.0025647000002209097
296	448.145279999997	stim	1		100	surprise	0.05	-1.0	1000.0	0.9804947171720192	488.8406588000071	0.9972476999973878
296	449.1425276999944	stim	2		50	surprise	0.05	-1.0	1000.0	0.9804947171720192	489.83790650000446	0.49951530000544153
297	449.64204299999983	stim	0		0	surprise	0.05	-1.0	1000.0	0.9804947171720192	490.3374218000099	0.002137200004654005
297	449.6441802000045	stim	1		100	surprise	0.05	-1.0	1000.0	0.9804947171720192	490.33955900001456	0.9983647000044584
297	450.64254490000894	stim	2		50	surprise	0.05	-1.0	1000.0	0.9804947171720192	491.337923700019	0.4997791000059806
298	451.1423240000149	stim	0		0	surprise	0.05	-1.0	1000.0	0.9804947171720192	491.837702800025	0.0023181999858934432
298	451.1446422000008	stim	1		100	surprise	0.05	-1.0	1000.0	0.9804947171720192	491.8400210000109	0.997861500014551
298	452.14250370001537	stim	2		50	surprise	0.05	-1.0	1000.0	0.9804947171720192	492.83788250002544	0.49990840000100434
299	452.6424121000164	stim	0		0	surprise	0.05	-1.0	1000.0	0.9804947171720192	493.33779090002645	0.0024452999932691455
299	452.64485740000964	stim	1		100	surprise	0.05	-1.0	1000.0	0.9804947171720192	493.3402362000197	0.9977427999838255
299	453.64260019999347	stim	2		500	surprise	0.05	-1.0	1000.0	0.9804947171720192	494.33797900000354	5.0008382000087295
